sample_index,timestamp_ms,accel_x_raw,accel_y_raw,accel_z_raw,gyro_x_raw,gyro_y_raw,gyro_z_raw,accel_x_g,accel_y_g,accel_z_g,gyro_x_dps,gyro_y_dps,gyro_z_dps,roll_acc_deg,pitch_acc_deg,accel_magnitude_g,roll_kf_deg,pitch_kf_deg,roll_bias_dps,pitch_bias_dps,roll_k_angle,pitch_k_angle,qw,qx,qy,qz,mahony_roll_deg,mahony_pitch_deg,mahony_yaw_deg
138414,1384153,1838,-266,12018,-19,-378,-273,0.02001,-0.01775,0.99665,0.44885,-1.48244,0.06031,-1.02007,-1.15009,0.99701,-1.06698,-0.8198,0.103069,0.114317,0.018052,0.018052,0.85537,-0.004086,-0.010335,0.517899,-1.01402,-0.77054,62.39398
138415,1384163,1824,-264,12014,-111,-177,-279,0.01915,-0.01762,0.99641,-0.25344,0.05191,0.0145,-1.01326,-1.10099,0.99675,-1.06952,-0.82541,0.102972,0.11479,0.017803,0.017803,0.855369,-0.004078,-0.010391,0.517899,-1.01654,-0.77656,62.39411
138416,1384173,1784,-294,12028,-154,-50,-277,0.0167,-0.01946,0.99724,-0.58168,1.02137,0.02977,-1.11811,-0.95908,0.99757,-1.07715,-0.819,0.103046,0.115042,0.018586,0.018586,0.855368,-0.004166,-0.010378,0.5179,-1.02438,-0.76997,62.39425
138417,1384183,1774,-292,12106,-167,0,-269,0.01608,-0.01934,1.00188,-0.68092,1.40305,0.09084,-1.10593,-0.91957,1.00219,-1.08538,-0.80825,0.103083,0.115244,0.018772,0.018772,0.855365,-0.004279,-0.010333,0.517906,-1.03282,-0.7589,62.39493
138418,1384193,1810,-260,12076,-118,-50,-267,0.01829,-0.01738,1.0001,-0.30687,1.02137,0.10611,-0.99548,-1.04775,1.00041,-1.08763,-0.80407,0.102908,0.115706,0.01962,0.01962,0.855361,-0.004317,-0.010311,0.517912,-1.03515,-0.75445,62.39579
138419,1384203,1822,-276,12050,-81,-129,-270,0.01903,-0.01836,0.99855,-0.02443,0.41832,0.08321,-1.05332,-1.09158,0.9989,-1.08822,-0.80668,0.102843,0.11624,0.019401,0.019401,0.855357,-0.00431,-0.010332,0.517918,-1.03577,-0.75699,62.39656
138420,1384213,1784,-294,12030,-95,-104,-270,0.0167,-0.01946,0.99736,-0.1313,0.60916,0.08321,-1.11798,-0.95896,0.99769,-1.09107,-0.80468,0.102891,0.116518,0.01864,0.01864,0.855354,-0.004341,-0.01033,0.517923,-1.03873,-0.7549,62.3973
138421,1384223,1774,-308,12080,-124,-30,-265,0.01608,-0.02032,1.00033,-0.35267,1.17405,0.12137,-1.16383,-0.92097,1.00067,-1.09696,-0.79658,0.103017,0.116753,0.019527,0.019527,0.855349,-0.004424,-0.010294,0.517931,-1.04477,-0.74646,62.39833
138422,1384233,1758,-322,12124,-166,54,-253,0.0151,-0.02118,1.00295,-0.67328,1.81527,0.21298,-1.20983,-0.86249,1.00328,-1.10658,-0.78106,0.103194,0.116892,0.017719,0.017719,0.85534,-0.004571,-0.010221,0.517946,-1.05479,-0.73057,62.40017
138423,1384243,1778,-280,12112,-103,-32,-237,0.01633,-0.0186,1.00223,-0.19237,1.15878,0.33511,-1.06347,-0.93328,1.00254,-1.10869,-0.77364,0.103113,0.117177,0.018443,0.018443,0.855326,-0.004621,-0.010174,0.51797,-1.05693,-0.72295,62.40331
138424,1384253,1766,-266,12006,-84,-50,-230,0.01559,-0.01775,0.99594,-0.04733,1.02137,0.38855,-1.0208,-0.89685,0.99622,-1.10866,-0.76688,0.102968,0.117393,0.017197,0.017197,0.855309,-0.00465,-0.010122,0.517998,-1.05673,-0.71609,62.40699
138425,1384263,1752,-276,12186,-56,-98,-222,0.01473,-0.01836,1.00663,0.16641,0.65496,0.44962,-1.04486,-0.83843,1.00691,-1.10718,-0.76253,0.102888,0.11749,0.01338,0.01338,0.85529,-0.004655,-0.010082,0.518031,-1.0549,-0.7118,62.41136
138426,1384273,1710,-282,12054,-52,-98,-214,0.01216,-0.01873,0.99879,0.19695,0.65496,0.51069,-1.07417,-0.69721,0.99904,-1.10561,-0.75598,0.102828,0.117379,0.019559,0.019559,0.855267,-0.004675,-0.010024,0.518069,-1.05338,-0.70486,62.41635
138427,1384283,1682,-334,12084,-68,-54,-211,0.01044,-0.02192,1.00057,0.07481,0.99084,0.53359,-1.25484,-0.59757,1.00086,-1.1088,-0.74432,0.103105,0.117101,0.019571,0.019571,0.855244,-0.004754,-0.009948,0.518109,-1.05672,-0.69271,62.42155
138428,1384293,1718,-300,12074,-72,-51,-215,0.01265,-0.01983,0.99998,0.04427,1.01374,0.50305,-1.13614,-0.72448,1.00025,-1.10992,-0.73514,0.103154,0.117081,0.019681,0.019681,0.855222,-0.004806,-0.009882,0.518146,-1.05792,-0.68312,62.42641
138429,1384303,1758,-286,12080,-55,-107,-216,0.0151,-0.01897,1.00033,0.17405,0.58626,0.49542,-1.08656,-0.86478,1.00063,-1.10877,-0.73308,0.103112,0.11733,0.019594,0.019594,0.8552,-0.004808,-0.00986,0.518182,-1.05681,-0.6808,62.43127
138430,1384313,1804,-298,12096,-41,-147,-213,0.01792,-0.01971,1.00128,0.28092,0.28092,0.51832,-1.12764,-1.0254,1.00164,-1.10738,-0.73707,0.10315,0.117864,0.019145,0.019145,0.855177,-0.00478,-0.009884,0.51822,-1.05548,-0.68477,62.43642
138431,1384323,1714,-296,12094,-32,-186,-213,0.0124,-0.01959,1.00116,0.34962,-0.01679,0.51832,-1.12075,-0.70959,1.00143,-1.10522,-0.73786,0.103179,0.117811,0.019249,0.019249,0.855153,-0.004761,-0.009879,0.518259,-1.05334,-0.68534,62.44162
138432,1384333,1664,-320,12136,-32,-176,-213,0.00933,-0.02106,1.00366,0.34962,0.05954,0.51832,-1.20197,-0.5327,1.00392,-1.10445,-0.73494,0.103339,0.117479,0.017048,0.017048,0.85513,-0.004773,-0.009849,0.518299,-1.05284,-0.68164,62.44682
138433,1384343,1712,-288,12094,-49,-143,-217,0.01228,-0.0191,1.00116,0.21985,0.31145,0.48779,-1.09268,-0.70257,1.00142,-1.10308,-0.73241,0.10332,0.117423,0.019269,0.019269,0.855108,-0.004775,-0.009822,0.518335,-1.05149,-0.67885,62.45165
138434,1384353,1752,-312,12124,-56,-112,-214,0.01473,-0.02057,1.00295,0.16641,0.54809,0.51069,-1.1748,-0.84147,1.00327,-1.10374,-0.73012,0.103442,0.117614,0.017777,0.017777,0.855085,-0.004792,-0.009809,0.518373,-1.05233,-0.6765,62.45668
138435,1384363,1732,-280,12072,-58,-118,-213,0.01351,-0.0186,0.99986,0.15115,0.50229,0.51832,-1.066,-0.7738,1.00012,-1.10253,-0.72721,0.103372,0.117703,0.019648,0.019648,0.855062,-0.004797,-0.00978,0.518411,-1.05115,-0.67333,62.46178
138436,1384373,1680,-298,12132,-58,-96,-207,0.01032,-0.01971,1.00342,0.15115,0.67023,0.56412,-1.12523,-0.58889,1.00367,-1.10245,-0.71938,0.10341,0.117485,0.01734,0.01734,0.855037,-0.004835,-0.009717,0.518453,-1.05116,-0.66486,62.46732
138437,1384383,1770,-328,12074,-60,-79,-205,0.01584,-0.02155,0.99998,0.13588,0.8,0.57939,-1.2345,-0.90722,1.00033,-1.10472,-0.71638,0.103657,0.117847,0.01963,0.01963,0.855011,-0.004867,-0.009704,0.518496,-1.05354,-0.6616,62.473
138438,1384393,1714,-242,12146,-70,-69,-209,0.0124,-0.01627,1.00425,0.05954,0.87634,0.54885,-0.92838,-0.70745,1.00446,-1.10226,-0.70877,0.103381,0.117845,0.016423,0.016423,0.854987,-0.00488,-0.009631,0.518536,-1.05055,-0.65363,62.47829
138439,1384403,1752,-342,12150,-71,-54,-211,0.01473,-0.02241,1.00449,0.05191,0.99084,0.53359,-1.27792,-0.84015,1.00485,-1.10558,-0.70228,0.103647,0.118057,0.015984,0.015984,0.854964,-0.004938,-0.009602,0.518575,-1.05453,-0.64727,62.4835
138440,1384413,1716,-316,12116,-76,-39,-217,0.01252,-0.02081,1.00247,0.01374,1.10534,0.48779,-1.18938,-0.71566,1.00277,-1.108,-0.69283,0.103791,0.118098,0.018343,0.018343,0.854942,-0.005002,-0.009541,0.518611,-1.05712,-0.63749,62.48821
138441,1384423,1670,-304,12092,-82,-19,-214,0.0097,-0.02008,1.00105,-0.03206,1.25802,0.51069,-1.14896,-0.55517,1.00129,-1.11012,-0.67898,0.103864,0.117865,0.019402,0.019402,0.85492,-0.005082,-0.009444,0.518649,-1.05933,-0.62317,62.4931
138442,1384433,1722,-252,12074,-79,-26,-212,0.01289,-0.01689,0.99998,-0.00916,1.20458,0.52595,-0.96749,-0.73858,1.0002,-1.10842,-0.6695,0.103595,0.117997,0.019694,0.019694,0.854897,-0.005114,-0.009363,0.518687,-1.05764,-0.61334,62.49812
138443,1384443,1674,-298,12108,-71,-68,-221,0.00995,-0.01971,1.002,0.05191,0.88397,0.45725,-1.12683,-0.56868,1.00224,-1.10927,-0.6601,0.103627,0.117831,0.018756,0.018756,0.854877,-0.005165,-0.009295,0.518721,-1.05854,-0.60353,62.50255
138444,1384453,1684,-300,12130,-62,-97,-232,0.01056,-0.01983,1.0033,0.12061,0.6626,0.37328,-1.13237,-0.60297,1.00356,-1.10951,-0.65375,0.103666,0.117745,0.017504,0.017504,0.854861,-0.005197,-0.009246,0.518749,-1.05883,-0.59682,62.50618
138445,1384463,1660,-328,12116,-58,-121,-250,0.00909,-0.02155,1.00247,0.15115,0.47939,0.23588,-1.23143,-0.5193,1.00274,-1.11128,-0.64773,0.103879,0.117518,0.018338,0.018338,0.85485,-0.00524,-0.009207,0.518767,-1.06077,-0.59045,62.50848
138446,1384473,1682,-318,12132,-58,-150,-276,0.01044,-0.02094,1.00342,0.15115,0.25802,0.0374,-1.19525,-0.59588,1.0037,-1.11228,-0.64545,0.104018,0.117435,0.01737,0.01737,0.854849,-0.00526,-0.009194,0.518769,-1.06192,-0.58797,62.50884
138447,1384483,1700,-330,12124,-48,-160,-347,0.01154,-0.02167,1.00295,0.22748,0.18168,-0.50458,-1.23785,-0.65923,1.00325,-1.11331,-0.64506,0.104233,0.117459,0.017869,0.017869,0.854871,-0.00527,-0.009197,0.518732,-1.06307,-0.58766,62.5038
138448,1384493,1792,-328,12118,-36,-189,-622,0.01719,-0.02155,1.00259,0.31908,-0.03969,-2.60382,-1.23129,-0.98197,1.00297,-1.11334,-0.65272,0.104439,0.118037,0.018158,0.018158,0.854989,-0.005232,-0.00926,0.518537,-1.06295,-0.59635,62.4778
138449,1384503,1722,-240,12128,-45,-205,-1153,0.01289,-0.01615,1.00318,0.25038,-0.16183,-6.65725,-0.92237,-0.73623,1.0034,-1.10852,-0.65695,0.104121,0.118172,0.017727,0.017727,0.85529,-0.005167,-0.009272,0.51804,-1.05697,-0.60197,62.41124
138450,1384513,1710,-292,12100,-49,-213,-1168,0.01216,-0.01934,1.00152,0.21985,-0.2229,-6.77176,-1.10632,-0.6953,1.00178,-1.10734,-0.66103,0.104119,0.118236,0.019151,0.019151,0.855596,-0.005134,-0.0093,0.517535,-1.05504,-0.60731,62.34358
138451,1384523,1744,-298,12050,-50,-211,-1178,0.01424,-0.01971,0.99855,0.21221,-0.20763,-6.84809,-1.13072,-0.81704,0.99885,-1.10674,-0.66727,0.104164,0.118518,0.019478,0.019478,0.855905,-0.005096,-0.009347,0.517023,-1.0537,-0.61483,62.27517
138452,1384533,1660,-324,12094,-44,-204,-1327,0.00909,-0.0213,1.00116,0.25802,-0.1542,-7.9855,-1.219,-0.51998,1.00143,-1.1074,-0.6671,0.104373,0.118243,0.019324,0.019324,0.856265,-0.005096,-0.009351,0.516427,-1.05356,-0.61595,62.19538
138453,1384543,1636,-284,12032,-52,-179,-1326,0.00762,-0.01885,0.99748,0.19695,0.03664,-7.97786,-1.08262,-0.43735,0.99769,-1.10603,-0.6636,0.10433,0.117834,0.018715,0.018715,0.856624,-0.005097,-0.009319,0.515831,-1.05131,-0.61349,62.11562
138454,1384553,1598,-316,12056,-67,-154,-1131,0.00528,-0.02081,0.99891,0.08244,0.22748,-6.48931,-1.19362,-0.30299,0.99914,-1.10795,-0.65547,0.104492,0.117168,0.019548,0.019548,0.856916,-0.005145,-0.009268,0.515347,-1.05264,-0.60621,62.05071
138455,1384563,1600,-316,12102,-73,-128,-823,0.00541,-0.02081,1.00164,0.03664,0.42595,-4.13817,-1.19037,-0.30918,1.00187,-1.11019,-0.64586,0.10464,0.116549,0.019018,0.019018,0.857102,-0.005205,-0.009204,0.515038,-1.05459,-0.59679,62.00929
138456,1384573,1626,-296,12104,-65,-109,-520,0.007,-0.01959,1.00176,0.09771,0.57099,-1.82519,-1.12009,-0.40039,1.00197,-1.11044,-0.63675,0.104657,0.116116,0.018936,0.018936,0.857185,-0.00525,-0.009134,0.514901,-1.05472,-0.5875,61.99095
138457,1384583,1676,-266,12106,-73,-101,-361,0.01007,-0.01775,1.00188,0.03664,0.63206,-0.61145,-1.01475,-0.57579,1.00209,-1.10931,-0.63054,0.104485,0.116017,0.018848,0.018848,0.857213,-0.00527,-0.00908,0.514855,-1.0535,-0.58106,61.98472
138458,1384593,1678,-298,12080,-75,-99,-289,0.01019,-0.01971,1.00033,0.02137,0.64733,-0.06183,-1.12871,-0.58368,1.00058,-1.1105,-0.62441,0.10452,0.11594,0.019581,0.019581,0.857216,-0.005308,-0.009038,0.51485,-1.05478,-0.57465,61.98399
138459,1384603,1688,-300,12062,-79,-98,-277,0.01081,-0.01983,0.99926,-0.00916,0.65496,0.02977,-1.13695,-0.61948,0.99952,-1.11213,-0.61903,0.104567,0.11594,0.01958,0.01958,0.857215,-0.005347,-0.009004,0.514852,-1.05652,-0.569,61.98419
138460,1384613,1626,-324,12098,-73,-95,-285,0.007,-0.0213,1.0014,0.03664,0.67786,-0.0313,-1.21871,-0.40052,1.00165,-1.11483,-0.60935,0.104758,0.115555,0.019092,0.019092,0.857217,-0.005414,-0.008941,0.51485,-1.05938,-0.55886,61.98378
138461,1384623,1640,-290,12098,-67,-104,-294,0.00786,-0.01922,1.0014,0.08244,0.60916,-0.1,-1.09943,-0.44968,1.00162,-1.11476,-0.60146,0.10473,0.115275,0.019104,0.019104,0.857222,-0.005451,-0.008879,0.514843,-1.05934,-0.55061,61.98269
138462,1384633,1674,-288,12088,-70,-134,-297,0.00995,-0.0191,1.00081,0.05954,0.38015,-0.1229,-1.09307,-0.56936,1.00104,-1.11478,-0.59824,0.104689,0.115221,0.019378,0.019378,0.857227,-0.005466,-0.008854,0.514833,-1.05941,-0.54721,61.98138
138463,1384643,1650,-268,12110,-75,-149,-291,0.00847,-0.01787,1.00212,0.02137,0.26565,-0.0771,-1.02152,-0.48445,1.00231,-1.11387,-0.59464,0.104523,0.115023,0.018594,0.018594,0.857231,-0.005477,-0.00882,0.514827,-1.05843,-0.54332,61.98055
138464,1384653,1696,-296,12038,-80,-167,-285,0.0113,-0.01959,0.99784,-0.01679,0.12824,-0.0313,-1.12449,-0.64855,0.99809,-1.11526,-0.59553,0.10454,0.11512,0.018894,0.018894,0.857233,-0.005484,-0.008833,0.514825,-1.05992,-0.54414,61.98024
138465,1384663,1652,-308,12040,-80,-178,-280,0.0086,-0.02032,0.99796,-0.01679,0.04427,0.00687,-1.1666,-0.49349,0.9982,-1.11742,-0.59429,0.10463,0.114935,0.018959,0.018959,0.857232,-0.005508,-0.008832,0.514825,-1.06221,-0.54269,61.9803
138466,1384673,1662,-272,11944,-80,-162,-277,0.00921,-0.01811,0.99225,-0.01679,0.16641,0.02977,-1.04584,-0.53177,0.99246,-1.11772,-0.593,0.104544,0.114861,0.012555,0.012555,0.857231,-0.005515,-0.008818,0.514827,-1.06207,-0.54081,61.98058
138467,1384683,1692,-266,12032,-76,-164,-281,0.01105,-0.01775,0.99748,0.01374,0.15115,-0.00076,-1.01922,-0.63471,0.9977,-1.11677,-0.59342,0.104367,0.114936,0.0187,0.0187,0.857231,-0.005506,-0.008816,0.514827,-1.06108,-0.54117,61.98054
138468,1384693,1682,-276,12026,-78,-169,-289,0.01044,-0.01836,0.99712,-0.00153,0.11298,-0.06183,-1.05482,-0.59967,0.99735,-1.11667,-0.59356,0.104258,0.114947,0.018397,0.018397,0.857234,-0.005505,-0.008816,0.514822,-1.06097,-0.54121,61.9799
138469,1384703,1706,-314,12046,-75,-158,-296,0.01191,-0.02069,0.99831,0.02137,0.19695,-0.11527,-1.1873,-0.68343,0.9986,-1.11885,-0.59449,0.104385,0.115112,0.019296,0.019296,0.857239,-0.005518,-0.008833,0.514813,-1.06326,-0.5421,61.97873
138470,1384713,1670,-326,12058,-75,-160,-307,0.0097,-0.02143,0.99903,0.02137,0.18168,-0.19924,-1.22865,-0.55628,0.9993,-1.12181,-0.59309,0.104587,0.115043,0.019559,0.019559,0.857248,-0.005548,-0.008835,0.514798,-1.06634,-0.54061,61.97673
138471,1384723,1694,-304,12054,-69,-167,-318,0.01117,-0.02008,0.99879,0.06718,0.12824,-0.28321,-1.15156,-0.64089,0.99905,-1.12275,-0.59389,0.104641,0.115131,0.019461,0.019461,0.857261,-0.005553,-0.008845,0.514777,-1.06734,-0.54138,61.97388
138472,1384733,1682,-272,12084,-67,-171,-325,0.01044,-0.01811,1.00057,0.08244,0.09771,-0.33664,-1.03714,-0.59761,1.00079,-1.1213,-0.59413,0.104483,0.115138,0.019495,0.019495,0.857276,-0.005541,-0.00884,0.514752,-1.06588,-0.54159,61.9705
138473,1384743,1696,-320,12152,-70,-179,-303,0.0113,-0.02106,1.00461,0.05954,0.03664,-0.1687,-1.20084,-0.64416,1.0049,-1.12301,-0.5957,0.104602,0.115212,0.015868,0.015868,0.857283,-0.005549,-0.008862,0.514739,-1.0679,-0.54326,61.96883
138474,1384753,1642,-266,12062,-76,-188,-290,0.00798,-0.01775,0.99926,0.01374,-0.03206,-0.06947,-1.01741,-0.45769,0.99945,-1.12183,-0.59444,0.104404,0.114953,0.01959,0.01959,0.857286,-0.005546,-0.008846,0.514734,-1.06675,-0.54188,61.96813
138475,1384763,1674,-310,12048,-75,-187,-289,0.00995,-0.02044,0.99843,0.02137,-0.02443,-0.06183,-1.17308,-0.5707,0.99869,-1.12363,-0.59535,0.104496,0.114907,0.019302,0.019302,0.857289,-0.005557,-0.008861,0.514729,-1.06865,-0.54271,61.96754
138476,1384773,1686,-308,12070,-58,-187,-284,0.01068,-0.02032,0.99974,0.15115,-0.02443,-0.02366,-1.16452,-0.61215,1.0,-1.12398,-0.59704,0.104573,0.114936,0.019612,0.019612,0.85729,-0.005553,-0.008875,0.514727,-1.06906,-0.54435,61.96733
138477,1384783,1746,-306,12080,-59,-181,-296,0.01437,-0.0202,1.00033,0.14351,0.02137,-0.11527,-1.1568,-0.8226,1.00064,-1.12423,-0.60236,0.104635,0.115351,0.019513,0.019513,0.857295,-0.005531,-0.008916,0.514718,-1.06937,-0.54972,61.96618
138478,1384793,1672,-268,12054,-62,-171,-325,0.00982,-0.01787,0.99879,0.12061,0.09771,-0.33664,-1.02492,-0.56349,0.999,-1.12215,-0.60178,0.104452,0.115279,0.019381,0.019381,0.857311,-0.005518,-0.008902,0.514693,-1.06724,-0.54908,61.9628
138479,1384803,1692,-298,12110,-64,-181,-376,0.01105,-0.01971,1.00212,0.10534,0.02137,-0.72595,-1.1267,-0.63175,1.00237,-1.12223,-0.60326,0.10446,0.11533,0.018536,0.018536,0.857343,-0.005512,-0.008914,0.514639,-1.0673,-0.55065,61.95553
138480,1384813,1616,-316,12098,-62,-175,-394,0.00639,-0.02081,1.0014,0.12061,0.06718,-0.86336,-1.19065,-0.36542,1.00164,-1.12337,-0.5992,0.104584,0.1149,0.019056,0.019056,0.857382,-0.00554,-0.008887,0.514575,-1.06847,-0.54644,61.94691
138481,1384823,1680,-324,12078,-67,-174,-393,0.01032,-0.0213,1.00021,0.08244,0.07481,-0.85573,-1.22016,-0.59076,1.00049,-1.12548,-0.59943,0.104763,0.114883,0.019503,0.019503,0.85742,-0.005556,-0.008898,0.514511,-1.0706,-0.54674,61.93838
138482,1384833,1692,-280,12052,-67,-163,-373,0.01105,-0.0186,0.99867,0.08244,0.15878,-0.70305,-1.06726,-0.63394,0.9989,-1.12457,-0.59966,0.104656,0.114947,0.019304,0.019304,0.857452,-0.005548,-0.008896,0.514458,-1.06964,-0.54703,61.93132
138483,1384843,1706,-314,12026,-59,-158,-334,0.01191,-0.02069,0.99712,0.14351,0.19695,-0.40534,-1.18871,-0.68425,0.99741,-1.12537,-0.60041,0.104768,0.115096,0.018314,0.018314,0.85747,-0.005551,-0.008906,0.514427,-1.07053,-0.54786,61.92726
138484,1384853,1702,-288,12022,-59,-169,-284,0.01167,-0.0191,0.99689,0.14351,0.11298,-0.02366,-1.09737,-0.67033,0.99714,-1.12448,-0.60169,0.104721,0.115215,0.018072,0.018072,0.857471,-0.005538,-0.008911,0.514425,-1.06963,-0.54916,61.927
138485,1384863,1626,-332,12116,-61,-176,-265,0.007,-0.02179,1.00247,0.12824,0.05954,0.12137,-1.24545,-0.40009,1.00273,-1.12645,-0.59857,0.10493,0.114867,0.018202,0.018202,0.857465,-0.005571,-0.008895,0.514435,-1.07184,-0.54559,61.92824
138486,1384873,1702,-304,12100,-57,-185,-261,0.01167,-0.02008,1.00152,0.15878,-0.00916,0.15191,-1.14841,-0.66721,1.00179,-1.12634,-0.60109,0.10497,0.114988,0.018947,0.018947,0.857458,-0.005559,-0.008913,0.514446,-1.0718,-0.54807,61.92976
138487,1384883,1716,-288,12062,-46,-194,-274,0.01252,-0.0191,0.99926,0.24275,-0.07786,0.05267,-1.09476,-0.71798,0.99952,-1.12437,-0.60526,0.104914,0.1152,0.019493,0.019493,0.857456,-0.005526,-0.008936,0.51445,-1.06983,-0.55224,61.93032
138488,1384893,1760,-328,12046,-53,-202,-328,0.01522,-0.02155,0.99831,0.18931,-0.13893,-0.35954,-1.23656,-0.87352,0.99866,-1.1257,-0.61289,0.10512,0.115683,0.019182,0.019182,0.857472,-0.005501,-0.009001,0.514422,-1.07124,-0.56011,61.92677
138489,1384903,1708,-306,12062,-63,-174,-715,0.01203,-0.0202,0.99926,0.11298,0.07481,-3.31374,-1.15804,-0.68982,0.99954,-1.12625,-0.61479,0.10518,0.115825,0.019468,0.019468,0.857621,-0.005495,-0.009019,0.514174,-1.07152,-0.56258,61.89365
138490,1384913,1708,-342,12088,-77,-142,-973,0.01203,-0.02241,1.00081,0.00611,0.31908,-5.28321,-1.28262,-0.68873,1.00113,-1.13023,-0.61422,0.105463,0.115963,0.019251,0.019251,0.857858,-0.005525,-0.009035,0.513778,-1.07515,-0.56289,61.8408
138491,1384923,1662,-272,12112,-82,-144,-1225,0.00921,-0.01811,1.00223,-0.03206,0.30382,-7.20687,-1.03542,-0.52648,1.00244,-1.12984,-0.61076,0.105296,0.115813,0.018406,0.018406,0.858181,-0.005533,-0.009008,0.513239,-1.07398,-0.56048,61.76869
138492,1384933,1636,-280,12104,-75,-150,-1110,0.00762,-0.0186,1.00176,0.02137,0.25802,-6.32901,-1.06397,-0.43549,1.00196,-1.12942,-0.60608,0.105177,0.115504,0.018778,0.018778,0.858464,-0.005547,-0.008971,0.512765,-1.07295,-0.5566,61.70536
138493,1384943,1646,-312,12008,-71,-150,-611,0.00823,-0.02057,0.99605,0.05191,0.25802,-2.51985,-1.18293,-0.47325,0.9963,-1.13087,-0.60239,0.105263,0.11529,0.017178,0.017178,0.858577,-0.005576,-0.008948,0.512576,-1.07435,-0.55285,61.68014
138494,1384953,1732,-276,12098,-61,-151,-434,0.01351,-0.01836,1.0014,0.12824,0.25038,-1.1687,-1.05032,-0.77261,1.00166,-1.12911,-0.6043,0.105118,0.115599,0.018997,0.018997,0.85863,-0.005554,-0.008955,0.512488,-1.07248,-0.55495,61.66839
138495,1384963,1700,-334,12106,-61,-165,-381,0.01154,-0.02192,1.00188,0.12824,0.14351,-0.76412,-1.2532,-0.65993,1.00218,-1.1312,-0.60506,0.105338,0.115698,0.018633,0.018633,0.858664,-0.005568,-0.008971,0.512431,-1.07472,-0.55574,61.66077
138496,1384973,1632,-340,12096,-50,-173,-385,0.00737,-0.02229,1.00128,0.21221,0.08244,-0.79466,-1.27499,-0.42162,1.00156,-1.13289,-0.6019,0.1056,0.115366,0.019051,0.019051,0.858699,-0.005597,-0.008953,0.512371,-1.07651,-0.55239,61.65284
138497,1384983,1718,-386,12032,-61,-167,-1241,0.01265,-0.02511,0.99748,0.12824,0.12824,-7.32901,-1.44184,-0.72621,0.99788,-1.13843,-0.60409,0.106147,0.115586,0.018671,0.018671,0.859026,-0.005626,-0.009,0.511822,-1.0818,-0.55595,61.57961
138498,1384993,1662,-248,11992,-68,-188,-2631,0.00921,-0.01664,0.9951,0.07481,-0.03206,-17.9397,-0.9581,-0.53026,0.99529,-1.13585,-0.60436,0.105873,0.115472,0.016007,0.016007,0.859827,-0.005589,-0.008993,0.510476,-1.07688,-0.55915,61.40022
138499,1385003,1604,-258,12028,-78,-201,-2600,0.00565,-0.01726,0.99724,-0.00153,-0.1313,-17.70305,-0.99128,-0.32467,0.99741,-1.13426,-0.60166,0.10562,0.114981,0.018339,0.018339,0.860614,-0.005578,-0.008969,0.509148,-1.07347,-0.55913,61.22322
138500,1385013,1664,-274,12098,-80,-191,-1891,0.00933,-0.01824,1.0014,-0.01679,-0.05496,-12.29084,-1.0433,-0.53393,1.00161,-1.13372,-0.60203,0.105453,0.114856,0.019066,0.019066,0.86116,-0.005564,-0.008974,0.508225,-1.07183,-0.56147,61.10033
138501,1385023,1714,-268,12056,-74,-171,-985,0.0124,-0.01787,0.99891,0.02901,0.09771,-5.37481,-1.0248,-0.71121,0.99914,-1.13236,-0.60432,0.105251,0.115056,0.019403,0.019403,0.861398,-0.005542,-0.008986,0.50782,-1.07008,-0.56449,61.04656
138502,1385033,1656,-268,12048,-73,-161,-511,0.00884,-0.01787,0.99843,0.03664,0.17405,-1.75649,-1.02529,-0.50736,0.99863,-1.13098,-0.60188,0.105055,0.114881,0.019174,0.019174,0.861476,-0.005544,-0.00896,0.507688,-1.06864,-0.56194,61.02895
138503,1385043,1732,-328,12086,-68,-172,-335,0.01351,-0.02155,1.00069,0.07481,0.09008,-0.41298,-1.23362,-0.77311,1.00101,-1.13326,-0.60543,0.105243,0.115194,0.019322,0.019322,0.861494,-0.005548,-0.008996,0.507657,-1.07115,-0.56534,61.02485
138504,1385053,1670,-286,12058,-61,-162,-290,0.0097,-0.01897,0.99903,0.12824,0.16641,-0.06947,-1.08798,-0.5563,0.99925,-1.13216,-0.60398,0.10516,0.115105,0.019397,0.019397,0.861498,-0.005549,-0.008978,0.507652,-1.0702,-0.56351,61.02414
138505,1385063,1654,-360,12068,-62,-158,-281,0.00872,-0.02351,0.99962,0.12061,0.19695,-0.00076,-1.3474,-0.49966,0.99993,-1.1362,-0.60114,0.105558,0.114914,0.019487,0.019487,0.861497,-0.005596,-0.008973,0.507652,-1.07453,-0.56026,61.02414
138506,1385073,1630,-296,12048,-68,-161,-280,0.00725,-0.01959,0.99843,0.07481,0.17405,0.00687,-1.12382,-0.41581,0.99865,-1.13626,-0.59702,0.105535,0.114578,0.01913,0.01913,0.861497,-0.005618,-0.008939,0.507653,-1.07477,-0.55563,61.02417
138507,1385083,1690,-330,12054,-76,-162,-269,0.01093,-0.02167,0.99879,0.01374,0.16641,0.09084,-1.24301,-0.62679,0.99908,-1.13922,-0.59708,0.105729,0.114634,0.019304,0.019304,0.861493,-0.005644,-0.008951,0.507659,-1.078,-0.55538,61.0251
138508,1385093,1640,-348,12104,-67,-172,-257,0.00786,-0.02278,1.00176,0.08244,0.09008,0.18244,-1.30244,-0.44948,1.00205,-1.1425,-0.59457,0.106017,0.114372,0.018682,0.018682,0.861485,-0.005685,-0.008945,0.507673,-1.08167,-0.55233,61.02695
138509,1385103,1700,-300,12086,-64,-181,-256,0.01154,-0.01983,1.00069,0.10534,0.02137,0.19008,-1.13533,-0.66075,1.00095,-1.14237,-0.59675,0.106004,0.114491,0.01928,0.01928,0.861476,-0.005676,-0.00896,0.507687,-1.0817,-0.55425,61.02885
138510,1385113,1680,-254,12102,-72,-194,-253,0.01032,-0.01701,1.00164,0.04427,-0.07786,0.21298,-0.9729,-0.58997,1.00184,-1.13979,-0.59851,0.105701,0.114476,0.018817,0.018817,0.861467,-0.00565,-0.008959,0.507703,-1.07911,-0.5557,61.03098
138511,1385123,1628,-320,12068,-67,-182,-246,0.00712,-0.02106,0.99962,0.08244,0.01374,0.26641,-1.20683,-0.40827,0.99987,-1.14132,-0.5958,0.105824,0.114123,0.019434,0.019434,0.861455,-0.005677,-0.008943,0.507724,-1.08087,-0.55256,61.03366
138512,1385133,1660,-294,12116,-66,-169,-237,0.00909,-0.01946,1.00247,0.09008,0.11298,0.33511,-1.11228,-0.51932,1.0027,-1.14095,-0.59443,0.105774,0.113992,0.018126,0.018126,0.86144,-0.005683,-0.008929,0.507749,-1.08062,-0.55071,61.03699
138513,1385143,1646,-290,12036,-71,-168,-228,0.00823,-0.01922,0.99772,0.05191,0.12061,0.40382,-1.10349,-0.47248,0.99794,-1.14078,-0.59209,0.105706,0.113776,0.018656,0.018656,0.861422,-0.005695,-0.008907,0.507779,-1.0806,-0.54787,61.04101
138514,1385153,1708,-300,12040,-70,-158,-224,0.01203,-0.01983,0.99796,0.05954,0.19695,0.43435,-1.13844,-0.69073,0.99823,-1.14119,-0.59313,0.105701,0.113954,0.018853,0.018853,0.861403,-0.005696,-0.008916,0.507812,-1.0812,-0.54867,61.04533
138515,1385163,1674,-282,12084,-66,-158,-221,0.00995,-0.01873,1.00057,0.09008,0.19695,0.45725,-1.07226,-0.5695,1.0008,-1.14001,-0.59186,0.105575,0.113912,0.019312,0.019312,0.861383,-0.005695,-0.008899,0.507846,-1.08016,-0.54703,61.04987
138516,1385173,1634,-288,12096,-65,-157,-219,0.00749,-0.0191,1.00128,0.09771,0.20458,0.47252,-1.09255,-0.42867,1.00149,-1.13918,-0.58787,0.105489,0.11362,0.019005,0.019005,0.861362,-0.005709,-0.008863,0.507882,-1.07948,-0.54253,61.05454
138517,1385183,1710,-332,12040,-64,-154,-215,0.01216,-0.02179,0.99796,0.10534,0.22748,0.50305,-1.25108,-0.69775,0.99827,-1.14129,-0.58883,0.105689,0.113818,0.01886,0.01886,0.86134,-0.005724,-0.008879,0.507919,-1.08189,-0.54326,61.05957
138518,1385193,1662,-252,12058,-61,-151,-221,0.00921,-0.01689,0.99903,0.12824,0.25038,0.45725,-0.96841,-0.52818,0.99921,-1.13774,-0.58632,0.105373,0.11371,0.019294,0.019294,0.86132,-0.00571,-0.008842,0.507954,-1.07838,-0.54037,61.06406
138519,1385203,1634,-290,12092,-61,-154,-224,0.00749,-0.01922,1.00105,0.12824,0.22748,0.43435,-1.09983,-0.42877,1.00126,-1.13679,-0.58219,0.105305,0.113427,0.019104,0.019104,0.861301,-0.005724,-0.008804,0.507986,-1.07757,-0.53578,61.06837
138520,1385213,1682,-254,12084,-62,-155,-222,0.01044,-0.01701,1.00057,0.12061,0.21985,0.44962,-0.97394,-0.59762,1.00077,-1.1335,-0.58144,0.105008,0.113457,0.019282,0.019282,0.861282,-0.005704,-0.008782,0.50802,-1.07433,-0.53474,61.07281
138521,1385223,1660,-316,12070,-72,-164,-222,0.00909,-0.02081,0.99974,0.04427,0.15115,0.44962,-1.19263,-0.52073,1.0,-1.13524,-0.5799,0.105115,0.113346,0.019383,0.019383,0.861261,-0.005727,-0.008777,0.508054,-1.0763,-0.53286,61.07729
138522,1385233,1690,-280,12046,-73,-167,-221,0.01093,-0.0186,0.99831,0.03664,0.12824,0.45725,-1.06764,-0.62713,0.99855,-1.13463,-0.58065,0.104992,0.113431,0.018978,0.018978,0.861241,-0.00572,-0.008779,0.508088,-1.0758,-0.53337,61.08185
138523,1385243,1656,-304,12028,-73,-171,-221,0.00884,-0.02008,0.99724,0.03664,0.09771,0.45725,-1.15334,-0.50794,0.99748,-1.13564,-0.57948,0.105024,0.113305,0.018235,0.018235,0.861221,-0.005736,-0.008773,0.508122,-1.07702,-0.5318,61.08641
138524,1385253,1696,-302,12094,-67,-181,-227,0.0113,-0.01995,1.00116,0.08244,0.02137,0.41145,-1.14181,-0.64639,1.00143,-1.13598,-0.58165,0.105034,0.113424,0.018997,0.018997,0.861203,-0.005731,-0.00879,0.508153,-1.07753,-0.5338,61.09055
138525,1385263,1666,-314,12054,-65,-182,-224,0.00946,-0.02069,0.99879,0.09771,0.01374,0.43435,-1.18673,-0.54234,0.99905,-1.13703,-0.58187,0.105127,0.113351,0.019201,0.019201,0.861183,-0.00574,-0.008796,0.508186,-1.07877,-0.53375,61.09489
138526,1385273,1684,-352,12102,-68,-187,-220,0.01056,-0.02302,1.00164,0.07481,-0.02443,0.46489,-1.31662,-0.60393,1.00196,-1.14068,-0.58364,0.105444,0.113387,0.01866,0.01866,0.861162,-0.005763,-0.008826,0.508221,-1.08281,-0.53531,61.0996
138527,1385283,1716,-284,12024,-62,-185,-224,0.01252,-0.01885,0.99701,0.12061,-0.00916,0.43435,-1.08314,-0.71961,0.99726,-1.13949,-0.58729,0.105346,0.113618,0.018039,0.018039,0.861143,-0.005738,-0.008848,0.508253,-1.08165,-0.53898,61.10394
138528,1385293,1710,-310,12066,-55,-196,-219,0.01216,-0.02044,0.9995,0.17405,-0.09313,0.47252,-1.17182,-0.69669,0.99978,-1.13944,-0.59144,0.105406,0.113815,0.01937,0.01937,0.861122,-0.00572,-0.008879,0.508289,-1.08175,-0.54297,61.10869
138529,1385303,1704,-276,12046,-58,-193,-221,0.01179,-0.01836,0.99831,0.15115,-0.07023,0.45725,-1.05357,-0.67642,0.99855,-1.13736,-0.59486,0.105253,0.113964,0.018976,0.018976,0.861102,-0.00569,-0.008895,0.508323,-1.07972,-0.54625,61.11329
138530,1385313,1652,-306,12030,-68,-173,-217,0.0086,-0.0202,0.99736,0.07481,0.08244,0.48779,-1.16025,-0.49378,0.9976,-1.13808,-0.59331,0.105292,0.113788,0.018331,0.018331,0.86108,-0.005705,-0.008884,0.50836,-1.08062,-0.54429,61.11816
138531,1385323,1676,-334,12020,-62,-160,-214,0.01007,-0.02192,0.99677,0.12061,0.18168,0.51069,-1.25962,-0.57869,0.99706,-1.1401,-0.59239,0.105498,0.113765,0.017857,0.017857,0.861057,-0.005728,-0.008886,0.508398,-1.08301,-0.54306,61.12327
138532,1385333,1648,-304,12038,-65,-168,-223,0.00835,-0.02008,0.99784,0.09771,0.12061,0.44198,-1.15265,-0.47946,0.99807,-1.14041,-0.59021,0.10552,0.113564,0.018708,0.018708,0.861038,-0.005743,-0.008869,0.508431,-1.08347,-0.5405,61.12767
138533,1385343,1722,-310,12072,-68,-161,-222,0.01289,-0.02044,0.99986,0.07481,0.17405,0.44962,-1.17141,-0.73862,1.00015,-1.14131,-0.59249,0.105577,0.113838,0.019385,0.019385,0.861018,-0.005741,-0.00889,0.508465,-1.08452,-0.54264,61.13215
138534,1385353,1656,-326,12052,-66,-158,-219,0.00884,-0.02143,0.99867,0.09008,0.19695,0.47252,-1.22908,-0.5072,0.99894,-1.14315,-0.59004,0.105736,0.113685,0.019165,0.019165,0.860997,-0.005768,-0.008878,0.5085,-1.08655,-0.53987,61.13688
138535,1385363,1688,-276,12112,-68,-162,-223,0.01081,-0.01836,1.00223,0.07481,0.16641,0.44198,-1.04945,-0.61766,1.00246,-1.14174,-0.59003,0.105573,0.113734,0.018283,0.018283,0.860978,-0.005758,-0.008871,0.508533,-1.08511,-0.53967,61.14125
138536,1385373,1632,-248,12080,-68,-162,-220,0.00737,-0.01664,1.00033,0.07481,0.16641,0.46489,-0.9531,-0.42207,1.0005,-1.13839,-0.58626,0.105226,0.113427,0.019331,0.019331,0.860957,-0.00575,-0.008825,0.508568,-1.08176,-0.53557,61.14584
138537,1385383,1732,-312,12086,-62,-167,-212,0.01351,-0.02057,1.00069,0.12061,0.12824,0.52595,-1.17745,-0.77313,1.00099,-1.13899,-0.5897,0.105298,0.113767,0.019181,0.019181,0.860934,-0.005741,-0.008854,0.508607,-1.08252,-0.53893,61.15109
138538,1385393,1688,-320,12138,-64,-176,-214,0.01081,-0.02106,1.00378,0.10534,0.05954,0.51069,-1.20183,-0.61668,1.00406,-1.14004,-0.59069,0.105397,0.113809,0.016667,0.016667,0.860911,-0.005747,-0.008867,0.508646,-1.08386,-0.53977,61.15622
138539,1385403,1688,-286,12046,-62,-184,-215,0.01081,-0.01897,0.99831,0.12061,-0.00153,0.50305,-1.08876,-0.62008,0.99855,-1.13892,-0.59238,0.105305,0.11386,0.019007,0.019007,0.860889,-0.005732,-0.008874,0.508683,-1.0828,-0.5413,61.16124
138540,1385413,1688,-290,12082,-59,-193,-217,0.01081,-0.01922,1.00045,0.14351,-0.07023,0.48779,-1.10048,-0.61875,1.00069,-1.1378,-0.59469,0.105235,0.113904,0.019302,0.019302,0.860867,-0.005714,-0.008886,0.50872,-1.08176,-0.54345,61.16613
138541,1385423,1656,-310,12086,-58,-186,-215,0.00884,-0.02044,1.00069,0.15115,-0.01679,0.50305,-1.17043,-0.50619,1.00094,-1.13798,-0.59427,0.105296,0.113741,0.019217,0.019217,0.860845,-0.005719,-0.008882,0.508758,-1.08207,-0.54278,61.17117
138542,1385433,1700,-312,12090,-61,-179,-215,0.01154,-0.02057,1.00093,0.12824,0.03664,0.50305,-1.17718,-0.66058,1.0012,-1.1385,-0.59629,0.105367,0.11386,0.019101,0.019101,0.860822,-0.005715,-0.008899,0.508796,-1.08274,-0.54467,61.17622
138543,1385443,1636,-318,12128,-65,-165,-218,0.00762,-0.02094,1.00318,0.09771,0.14351,0.48015,-1.19554,-0.43485,1.00343,-1.13956,-0.5932,0.105461,0.113594,0.017361,0.017361,0.860801,-0.005741,-0.008878,0.508832,-1.08403,-0.54098,61.18102
138544,1385453,1688,-304,12044,-59,-169,-215,0.01081,-0.02008,0.99819,0.14351,0.11298,0.50305,-1.15224,-0.62014,0.99845,-1.13943,-0.59372,0.105484,0.113643,0.018949,0.018949,0.860779,-0.005739,-0.008881,0.50887,-1.08401,-0.54133,61.18603
138545,1385463,1686,-344,12040,-62,-166,-219,0.01068,-0.02253,0.99796,0.12061,0.13588,0.47252,-1.29332,-0.61321,0.99827,-1.14218,-0.59387,0.105759,0.113678,0.018835,0.018835,0.860758,-0.005761,-0.008894,0.508905,-1.08702,-0.54132,61.19078
138546,1385473,1704,-364,12066,-65,-170,-216,0.01179,-0.02376,0.9995,0.09771,0.10534,0.49542,-1.36161,-0.67554,0.99985,-1.14651,-0.59553,0.106163,0.113828,0.019383,0.019383,0.860735,-0.005788,-0.008926,0.508942,-1.09158,-0.54285,61.19577
138547,1385483,1682,-336,12110,-61,-177,-216,0.01044,-0.02204,1.00212,0.12824,0.05191,0.49542,-1.25991,-0.59664,1.00241,-1.14838,-0.59616,0.10636,0.113829,0.018329,0.018329,0.860713,-0.005801,-0.008939,0.508979,-1.09369,-0.54331,61.20074
138548,1385493,1722,-298,12080,-59,-180,-217,0.01289,-0.01971,1.00033,0.14351,0.02901,0.48779,-1.12871,-0.73828,1.00061,-1.14763,-0.59974,0.106325,0.114087,0.019312,0.019312,0.860691,-0.00578,-0.008963,0.509016,-1.093,-0.54682,61.20562
138549,1385503,1684,-308,12044,-59,-185,-215,0.01056,-0.02032,0.99819,0.14351,-0.00916,0.50305,-1.16632,-0.60605,0.99846,-1.14762,-0.60106,0.106359,0.114097,0.01893,0.01893,0.860669,-0.005775,-0.008972,0.509053,-1.09308,-0.548,61.21066
138550,1385513,1634,-256,12110,-62,-177,-212,0.00749,-0.01713,1.00212,0.12061,0.05191,0.52595,-0.97945,-0.42833,1.00229,-1.14438,-0.59849,0.106065,0.113794,0.018421,0.018421,0.860646,-0.005763,-0.008935,0.509093,-1.08966,-0.545,61.2159
138551,1385523,1618,-268,12110,-62,-167,-212,0.00651,-0.01787,1.00212,0.12061,0.12824,0.52595,-1.02152,-0.3722,1.0023,-1.14198,-0.59418,0.105851,0.113399,0.018423,0.018423,0.860623,-0.005765,-0.008888,0.509133,-1.08715,-0.54018,61.22112
138552,1385533,1672,-282,12044,-62,-182,-211,0.00982,-0.01873,0.99819,0.12061,0.01374,0.53359,-1.07481,-0.56381,0.99842,-1.14056,-0.59459,0.105731,0.113342,0.018917,0.018917,0.860599,-0.005753,-0.008883,0.509173,-1.08575,-0.54041,61.22645
138553,1385543,1668,-314,12094,-58,-190,-219,0.00958,-0.02069,1.00116,0.15115,-0.04733,0.47252,-1.18391,-0.54808,1.00142,-1.14094,-0.59528,0.10581,0.113256,0.019,0.019,0.860578,-0.005754,-0.00889,0.509209,-1.08624,-0.54095,61.2312
138554,1385553,1698,-320,12062,-52,-186,-219,0.01142,-0.02106,0.99926,0.19695,-0.01679,0.47252,-1.20726,-0.65464,0.99955,-1.14133,-0.5977,0.105933,0.113362,0.019335,0.019335,0.860557,-0.005747,-0.00891,0.509244,-1.08674,-0.5433,61.23595
138555,1385563,1676,-292,12096,-52,-183,-217,0.01007,-0.01934,1.00128,0.19695,0.00611,0.48779,-1.10658,-0.57611,1.00152,-1.13978,-0.59834,0.105872,0.113321,0.018933,0.018933,0.860535,-0.005732,-0.008907,0.509281,-1.08521,-0.5438,61.24083
138556,1385573,1752,-302,12060,-57,-178,-213,0.01473,-0.01995,0.99914,0.15878,0.04427,0.51832,-1.14411,-0.84469,0.99945,-1.13934,-0.60378,0.105881,0.113771,0.019302,0.019302,0.860512,-0.005705,-0.008947,0.509319,-1.08485,-0.54928,61.24601
138557,1385583,1682,-284,12056,-60,-168,-217,0.01044,-0.01885,0.99891,0.13588,0.12061,0.48779,-1.08108,-0.5986,0.99914,-1.13793,-0.60361,0.105776,0.113762,0.019209,0.019209,0.860491,-0.005696,-0.008939,0.509356,-1.08346,-0.54897,61.25087
138558,1385593,1652,-348,12046,-70,-171,-216,0.0086,-0.02278,0.99831,0.05954,0.09771,0.49542,-1.30694,-0.49328,0.99861,-1.14159,-0.60167,0.106079,0.113563,0.01898,0.01898,0.860468,-0.005734,-0.00894,0.509393,-1.08737,-0.54678,61.25584
138559,1385603,1754,-266,12106,-67,-178,-214,0.01486,-0.01775,1.00188,0.08244,0.04427,0.51069,-1.01475,-0.84943,1.00214,-1.13947,-0.60694,0.105856,0.113996,0.018502,0.018502,0.860446,-0.005693,-0.008972,0.509431,-1.08515,-0.55227,61.26093
138560,1385613,1670,-276,12128,-59,-182,-217,0.0097,-0.01836,1.00318,0.14351,0.01374,0.48779,-1.04845,-0.55401,1.0034,-1.13752,-0.607,0.105707,0.113908,0.017373,0.017373,0.860424,-0.005677,-0.008961,0.509468,-1.08304,-0.55207,61.26579
138561,1385623,1708,-292,12080,-52,-184,-214,0.01203,-0.01934,1.00033,0.19695,-0.00153,0.51069,-1.10763,-0.6891,1.00059,-1.13605,-0.60972,0.105654,0.114056,0.019302,0.019302,0.860402,-0.005654,-0.008975,0.509506,-1.08161,-0.55473,61.27091
138562,1385633,1674,-288,12098,-57,-171,-213,0.00995,-0.0191,1.0014,0.15878,0.09771,0.51832,-1.09242,-0.56902,1.00163,-1.13471,-0.60911,0.105576,0.113983,0.018865,0.018865,0.860379,-0.005648,-0.008963,0.509545,-1.08029,-0.55394,61.27608
138563,1385643,1684,-318,12114,-58,-165,-211,0.01056,-0.02094,1.00235,0.15115,0.14351,0.53359,-1.19653,-0.60353,1.00263,-1.13538,-0.60872,0.105683,0.113973,0.018129,0.018129,0.860355,-0.005656,-0.008963,0.509585,-1.08114,-0.55339,61.28139
138564,1385653,1724,-268,12048,-65,-161,-215,0.01302,-0.01787,0.99843,0.09771,0.17405,0.50305,-1.02529,-0.74675,0.99868,-1.13336,-0.61076,0.105485,0.114224,0.019041,0.019041,0.860333,-0.005631,-0.008969,0.509622,-1.07909,-0.55542,61.28638
138565,1385663,1726,-286,12094,-67,-154,-210,0.01314,-0.01897,1.00116,0.08244,0.22748,0.54122,-1.08566,-0.75172,1.00143,-1.13268,-0.61232,0.105398,0.11448,0.018982,0.018982,0.860309,-0.005619,-0.008978,0.509663,-1.07845,-0.55696,61.29176
138566,1385673,1704,-292,12102,-69,-163,-211,0.01179,-0.01934,1.00164,0.06718,0.15878,0.53359,-1.10619,-0.67416,1.0019,-1.13256,-0.61305,0.105351,0.11459,0.0187,0.0187,0.860286,-0.005615,-0.008983,0.509702,-1.07838,-0.55761,61.29707
138567,1385683,1718,-296,12118,-64,-162,-210,0.01265,-0.01959,1.00259,0.10534,0.16641,0.54122,-1.11916,-0.7226,1.00286,-1.13232,-0.6145,0.105328,0.114777,0.017921,0.017921,0.860262,-0.005607,-0.008994,0.509743,-1.07819,-0.55912,61.30246
138568,1385693,1718,-268,12098,-60,-162,-208,0.01265,-0.01787,1.0014,0.13588,0.16641,0.55649,-1.02225,-0.72348,1.00164,-1.12995,-0.61605,0.105131,0.114973,0.018877,0.018877,0.860237,-0.005582,-0.008995,0.509784,-1.07577,-0.56063,61.30799
138569,1385703,1706,-274,12110,-59,-156,-212,0.01191,-0.01824,1.00212,0.14351,0.21221,0.52595,-1.04256,-0.68087,1.00235,-1.12796,-0.61629,0.10498,0.115088,0.018377,0.018377,0.860214,-0.005565,-0.008987,0.509823,-1.07373,-0.5608,61.31319
138570,1385713,1708,-298,12062,-55,-167,-219,0.01203,-0.01971,0.99926,0.17405,0.12824,0.47252,-1.12991,-0.68983,0.99953,-1.12732,-0.61758,0.104984,0.115223,0.019339,0.019339,0.860193,-0.005555,-0.008994,0.509859,-1.07316,-0.56201,61.31789
138571,1385723,1714,-276,12026,-55,-178,-212,0.0124,-0.01836,0.99712,0.17405,0.04427,0.52595,-1.05482,-0.71248,0.99737,-1.12533,-0.62,0.104861,0.115385,0.018139,0.018139,0.86017,-0.005528,-0.009004,0.509898,-1.0711,-0.56445,61.32315
138572,1385733,1662,-294,12072,-59,-186,-215,0.00921,-0.01946,0.99986,0.14351,-0.01679,0.50305,-1.11519,-0.52771,1.00009,-1.12475,-0.61951,0.104843,0.115213,0.01938,0.01938,0.860148,-0.005527,-0.008997,0.509936,-1.0706,-0.56379,61.32819
138573,1385743,1656,-296,12120,-55,-184,-215,0.00884,-0.01959,1.00271,0.17405,-0.00153,0.50305,-1.11902,-0.50518,1.00294,-1.12397,-0.61861,0.104834,0.115017,0.017856,0.017856,0.860125,-0.005527,-0.008984,0.509974,-1.06987,-0.56255,61.33324
138574,1385753,1676,-284,12052,-63,-176,-215,0.01007,-0.01885,0.99867,0.11298,0.05954,0.50305,-1.08134,-0.57762,0.9989,-1.12308,-0.61837,0.104757,0.114942,0.019158,0.019158,0.860103,-0.005522,-0.008978,0.510012,-1.06902,-0.56216,61.33826
138575,1385763,1720,-278,12094,-62,-166,-213,0.01277,-0.01848,1.00116,0.12061,0.13588,0.51832,-1.05759,-0.73067,1.00142,-1.12168,-0.6203,0.104639,0.115145,0.019004,0.019004,0.86008,-0.005502,-0.008986,0.51005,-1.06763,-0.56407,61.34341
138576,1385773,1676,-320,12166,-64,-173,-214,0.01007,-0.02106,1.00544,0.10534,0.08244,0.51069,-1.19984,-0.57371,1.00571,-1.12282,-0.61994,0.104748,0.115079,0.014675,0.014675,0.860057,-0.005517,-0.008988,0.510089,-1.06919,-0.56334,61.34853
138577,1385783,1686,-308,12112,-56,-165,-215,0.01068,-0.02032,1.00223,0.16641,0.14351,0.50305,-1.16162,-0.61062,1.0025,-1.12292,-0.61949,0.104817,0.115064,0.01833,0.01833,0.860035,-0.005521,-0.008985,0.510127,-1.06941,-0.56275,61.35355
138578,1385793,1710,-324,12040,-60,-162,-216,0.01216,-0.0213,0.99796,0.13588,0.16641,0.49542,-1.22292,-0.69775,0.99826,-1.12451,-0.62046,0.104996,0.115205,0.018895,0.018895,0.860013,-0.005529,-0.009,0.510163,-1.07116,-0.56369,61.35851
138579,1385803,1708,-300,12104,-65,-158,-216,0.01203,-0.01983,1.00176,0.09771,0.19695,0.49542,-1.13411,-0.68811,1.00203,-1.12476,-0.62093,0.105013,0.115326,0.0187,0.0187,0.859991,-0.00553,-0.009005,0.5102,-1.07149,-0.5641,61.36344
138580,1385813,1696,-330,12164,-62,-149,-223,0.0113,-0.02167,1.00532,0.12061,0.26565,0.44198,-1.23493,-0.64369,1.00562,-1.12624,-0.61978,0.105169,0.115361,0.014852,0.014852,0.859971,-0.00555,-0.009005,0.510233,-1.07349,-0.56291,61.36782
138581,1385823,1720,-324,12100,-65,-135,-216,0.01277,-0.0213,1.00152,0.09771,0.37252,0.49542,-1.21857,-0.73036,1.00183,-1.12806,-0.61935,0.105334,0.115564,0.018906,0.018906,0.859949,-0.005566,-0.00901,0.51027,-1.07546,-0.56243,61.37275
138582,1385833,1684,-268,12170,-57,-149,-220,0.01056,-0.01787,1.00568,0.15878,0.26565,0.46489,-1.0179,-0.60157,1.00589,-1.12593,-0.61761,0.105183,0.115541,0.01456,0.01456,0.859929,-0.005555,-0.008984,0.510305,-1.0728,-0.56044,61.37734
138583,1385843,1700,-306,12026,-60,-166,-218,0.01154,-0.0202,0.99712,0.13588,0.13588,0.48015,-1.16052,-0.6631,0.9974,-1.12626,-0.61825,0.105244,0.115621,0.018377,0.018377,0.859907,-0.005555,-0.00899,0.510341,-1.07323,-0.56103,61.38212
138584,1385853,1704,-260,12046,-61,-170,-214,0.01179,-0.01738,0.99831,0.12824,0.10534,0.51069,-0.99726,-0.67643,0.99853,-1.12356,-0.61947,0.105009,0.115726,0.019197,0.019197,0.859885,-0.005529,-0.008987,0.510379,-1.07048,-0.56219,61.3872
138585,1385863,1706,-302,12098,-68,-167,-209,0.01191,-0.01995,1.0014,0.07481,0.12824,0.54885,-1.14153,-0.68133,1.00167,-1.1242,-0.62052,0.105041,0.115839,0.019067,0.019067,0.85986,-0.005529,-0.008998,0.51042,-1.0712,-0.56318,61.39268
138586,1385873,1682,-342,12072,-68,-169,-213,0.01044,-0.02241,0.99986,0.07481,0.11298,0.51832,-1.28384,-0.59799,1.00016,-1.12762,-0.62011,0.105337,0.115797,0.019575,0.019575,0.859837,-0.005558,-0.00901,0.510459,-1.07476,-0.56265,61.39788
138587,1385883,1726,-282,12076,-62,-174,-221,0.01314,-0.01873,1.0001,0.12061,0.07481,0.45725,-1.07277,-0.75253,1.00036,-1.1264,-0.6231,0.105236,0.116041,0.019536,0.019536,0.859817,-0.005535,-0.009027,0.510493,-1.07356,-0.56561,61.40244
138588,1385893,1718,-300,12118,-55,-174,-218,0.01265,-0.01983,1.00259,0.17405,0.07481,0.48015,-1.13317,-0.7226,1.00287,-1.12585,-0.6253,0.105248,0.116211,0.018085,0.018085,0.859796,-0.005521,-0.009042,0.510529,-1.07305,-0.56789,61.40723
138589,1385903,1668,-294,12132,-62,-179,-215,0.00958,-0.01946,1.00342,0.12061,0.03664,0.50305,-1.11123,-0.54686,1.00366,-1.12544,-0.62473,0.105225,0.116081,0.017286,0.017286,0.859773,-0.005521,-0.009034,0.510566,-1.07265,-0.56701,61.41226
138590,1385913,1666,-332,12104,-63,-172,-218,0.00946,-0.02179,1.00176,0.11298,0.09008,0.48015,-1.24633,-0.54072,1.00204,-1.12764,-0.6234,0.105441,0.115931,0.01881,0.01881,0.859752,-0.005546,-0.009033,0.510603,-1.07502,-0.5655,61.41708
138591,1385923,1692,-286,12104,-64,-165,-219,0.01105,-0.01897,1.00176,0.10534,0.14351,0.47252,-1.08502,-0.63198,1.002,-1.12684,-0.6233,0.105364,0.115947,0.018835,0.018835,0.859731,-0.00554,-0.009028,0.510638,-1.07421,-0.5653,61.42178
138592,1385933,1718,-290,12084,-63,-165,-219,0.01265,-0.01922,1.00057,0.11298,0.14351,0.47252,-1.10035,-0.72406,1.00083,-1.12625,-0.62498,0.105316,0.116133,0.019435,0.019435,0.85971,-0.005528,-0.009039,0.510673,-1.07365,-0.56695,61.42649
138593,1385943,1682,-298,12068,-68,-145,-222,0.01044,-0.01971,0.99962,0.07481,0.29618,0.44962,-1.12951,-0.59816,0.99987,-1.12661,-0.62269,0.105321,0.116087,0.019548,0.019548,0.85969,-0.005542,-0.009022,0.510707,-1.07407,-0.56453,61.43093
138594,1385953,1660,-324,12114,-70,-145,-221,0.00909,-0.0213,1.00235,0.05954,0.29618,0.45725,-1.21756,-0.51937,1.00262,-1.12873,-0.61904,0.105478,0.11591,0.018301,0.018301,0.85967,-0.005576,-0.009003,0.510741,-1.07637,-0.56058,61.43547
138595,1385963,1702,-288,12106,-78,-129,-221,0.01167,-0.0191,1.00188,-0.00153,0.41832,0.45725,-1.0919,-0.66699,1.00213,-1.12909,-0.61696,0.105411,0.116001,0.018709,0.018709,0.859649,-0.005588,-0.008989,0.510775,-1.07673,-0.55843,61.43998
138596,1385973,1686,-300,12150,-79,-126,-213,0.01068,-0.01983,1.00449,-0.00916,0.44122,0.51832,-1.13103,-0.60926,1.00474,-1.13025,-0.61364,0.105412,0.115994,0.016005,0.016005,0.859627,-0.005612,-0.008968,0.510813,-1.07794,-0.55492,61.44509
138597,1385983,1682,-342,12050,-68,-143,-214,0.01044,-0.02241,0.99855,0.07481,0.31145,0.51069,-1.28552,-0.59877,0.99886,-1.13355,-0.61144,0.105696,0.11597,0.019339,0.019339,0.859604,-0.005648,-0.008966,0.510852,-1.08138,-0.55258,61.45017
138598,1385993,1708,-280,12048,-68,-162,-212,0.01203,-0.0186,0.99843,0.07481,0.16641,0.52595,-1.06752,-0.69042,0.99868,-1.13258,-0.61246,0.105575,0.116115,0.019242,0.019242,0.85958,-0.005636,-0.00897,0.510891,-1.08041,-0.55357,61.45539
138599,1386003,1746,-318,12042,-65,-171,-211,0.01437,-0.02094,0.99807,0.09771,0.09771,0.53359,-1.20166,-0.82445,0.9984,-1.13398,-0.61669,0.1057,0.116499,0.019079,0.019079,0.859557,-0.005628,-0.009009,0.51093,-1.0819,-0.5579,61.46073
138600,1386013,1668,-268,12100,-60,-179,-216,0.00958,-0.01787,1.00152,0.13588,0.03664,0.49542,-1.02213,-0.54791,1.00173,-1.13156,-0.61616,0.105499,0.116373,0.018995,0.018995,0.859535,-0.005611,-0.008993,0.510967,-1.0794,-0.55724,61.46566
138601,1386023,1690,-304,12114,-62,-177,-219,0.01093,-0.02008,1.00235,0.12061,0.05191,0.47252,-1.14746,-0.62458,1.00261,-1.1317,-0.61695,0.105527,0.116387,0.018316,0.018316,0.859514,-0.005609,-0.009,0.511003,-1.07959,-0.55797,61.47039
138602,1386033,1712,-280,12042,-70,-162,-217,0.01228,-0.0186,0.99807,0.05954,0.16641,0.48779,-1.0679,-0.70475,0.99832,-1.13094,-0.61813,0.105411,0.116546,0.019024,0.019024,0.859492,-0.005598,-0.009005,0.511039,-1.07881,-0.55914,61.47523
138603,1386043,1694,-306,12100,-61,-169,-215,0.01117,-0.0202,1.00152,0.12824,0.11298,0.50305,-1.15543,-0.63914,1.00179,-1.13118,-0.61856,0.105456,0.116584,0.018946,0.018946,0.85947,-0.005598,-0.00901,0.511077,-1.0791,-0.55951,61.48026
138604,1386053,1698,-304,12100,-55,-183,-216,0.01142,-0.02008,1.00152,0.17405,0.00611,0.49542,-1.14841,-0.65318,1.00179,-1.13083,-0.6203,0.105488,0.116644,0.01894,0.01894,0.859448,-0.005588,-0.009021,0.511114,-1.07879,-0.56122,61.48523
138605,1386063,1688,-310,12056,-57,-194,-221,0.01081,-0.02044,0.99891,0.15878,-0.07786,0.45725,-1.17252,-0.61969,0.99917,-1.13112,-0.6222,0.105566,0.116639,0.019397,0.019397,0.859427,-0.005581,-0.009037,0.511148,-1.07912,-0.56308,61.48983
138606,1386073,1700,-332,12126,-52,-189,-217,0.01154,-0.02179,1.00307,0.19695,-0.03969,0.48779,-1.24471,-0.65915,1.00337,-1.13221,-0.62438,0.105756,0.116698,0.017558,0.017558,0.859405,-0.005581,-0.00906,0.511185,-1.08048,-0.56529,61.49475
138607,1386083,1686,-268,12062,-56,-195,-216,0.01068,-0.01787,0.99926,0.16641,-0.0855,0.49542,-1.02444,-0.61247,0.99948,-1.12952,-0.62613,0.105558,0.116673,0.019481,0.019481,0.859383,-0.005553,-0.009061,0.511222,-1.07774,-0.56699,61.49972
138608,1386093,1718,-288,12078,-58,-184,-219,0.01265,-0.0191,1.00021,0.15115,-0.00153,0.47252,-1.09372,-0.72432,1.00048,-1.12837,-0.6292,0.105493,0.116852,0.019472,0.019472,0.859362,-0.00553,-0.009079,0.511257,-1.0766,-0.57007,61.50443
138609,1386103,1664,-282,12072,-64,-175,-221,0.00933,-0.01873,0.99986,0.10534,0.06718,0.45725,-1.07302,-0.53475,1.00008,-1.1273,-0.62785,0.105391,0.116676,0.019498,0.019498,0.859342,-0.005528,-0.009063,0.511292,-1.07552,-0.5686,61.50899
138610,1386113,1626,-322,12104,-65,-163,-223,0.007,-0.02118,1.00176,0.09771,0.15878,0.44198,-1.21127,-0.40038,1.00201,-1.12894,-0.62317,0.10554,0.116273,0.018743,0.018743,0.859322,-0.005564,-0.009034,0.511325,-1.07729,-0.56358,61.51341
138611,1386123,1704,-316,12098,-73,-139,-221,0.01179,-0.02081,1.0014,0.03664,0.34198,0.45725,-1.19065,-0.6743,1.00169,-1.13079,-0.62193,0.105649,0.116368,0.018952,0.018952,0.859302,-0.005584,-0.009033,0.511359,-1.07923,-0.56228,61.51793
138612,1386133,1700,-284,12118,-71,-127,-216,0.01154,-0.01885,1.00259,0.05191,0.43359,0.49542,-1.07711,-0.65951,1.00283,-1.13035,-0.61949,0.105557,0.116438,0.018054,0.018054,0.85928,-0.00559,-0.009012,0.511396,-1.07871,-0.55979,61.52281
138613,1386143,1736,-324,12150,-70,-145,-218,0.01375,-0.0213,1.00449,0.05954,0.29618,0.48015,-1.21497,-0.78419,1.00481,-1.13215,-0.62034,0.105683,0.116689,0.015882,0.015882,0.859258,-0.0056,-0.009032,0.511431,-1.08083,-0.56112,61.52757
138614,1386153,1686,-288,12052,-61,-151,-217,0.01068,-0.0191,0.99867,0.12824,0.25038,0.48779,-1.09541,-0.61282,0.99891,-1.13121,-0.61888,0.105616,0.116678,0.019315,0.019315,0.859237,-0.0056,-0.009016,0.511468,-1.07988,-0.55956,61.53241
138615,1386163,1648,-326,12094,-65,-163,-219,0.00835,-0.02143,1.00116,0.09771,0.15878,0.47252,-1.22602,-0.47785,1.00143,-1.13311,-0.61577,0.105788,0.116422,0.019144,0.019144,0.859216,-0.005629,-0.009,0.511503,-1.08187,-0.55625,61.53714
138616,1386173,1662,-270,12070,-66,-176,-219,0.00921,-0.01799,0.99974,0.09008,0.05954,0.47252,-1.03098,-0.52779,0.99994,-1.13127,-0.61461,0.105599,0.116258,0.019516,0.019516,0.859195,-0.00562,-0.008983,0.511539,-1.08,-0.555,61.54184
138617,1386183,1678,-302,12062,-62,-169,-221,0.01019,-0.01995,0.99926,0.12061,0.11298,0.45725,-1.14398,-0.5843,0.99951,-1.13137,-0.61405,0.105623,0.116203,0.019454,0.019454,0.859174,-0.005623,-0.008979,0.511573,-1.08011,-0.55437,61.54641
138618,1386193,1694,-276,12068,-69,-158,-220,0.01117,-0.01836,0.99962,0.06718,0.19695,0.46489,-1.05219,-0.64037,0.99985,-1.1302,-0.61377,0.105476,0.116253,0.01948,0.01948,0.859154,-0.005616,-0.008971,0.511608,-1.07893,-0.55403,61.55101
138619,1386203,1674,-278,12052,-64,-165,-219,0.00995,-0.01848,0.99867,0.10534,0.14351,0.47252,-1.06023,-0.57059,0.99889,-1.12886,-0.61268,0.105348,0.116174,0.019235,0.019235,0.859133,-0.00561,-0.008956,0.511643,-1.07755,-0.55284,61.55571
138620,1386213,1706,-318,12060,-62,-170,-216,0.01191,-0.02094,0.99914,0.12061,0.10534,0.49542,-1.20037,-0.68286,0.99943,-1.1301,-0.61414,0.10548,0.116303,0.019396,0.019396,0.859111,-0.005613,-0.008973,0.51168,-1.07884,-0.55429,61.56066
138621,1386223,1688,-330,12096,-60,-166,-212,0.01081,-0.02167,1.00128,0.13588,0.13588,0.52595,-1.23991,-0.61821,1.00158,-1.13188,-0.61403,0.105678,0.116311,0.018981,0.018981,0.859087,-0.005628,-0.008981,0.51172,-1.08075,-0.55411,61.56593
138622,1386233,1724,-286,12112,-65,-180,-222,0.01302,-0.01897,1.00223,0.09771,0.02901,0.44962,-1.0845,-0.74391,1.0025,-1.13109,-0.61726,0.105596,0.116535,0.018317,0.018317,0.859067,-0.005606,-0.009003,0.511753,-1.07989,-0.5575,61.57041
138623,1386243,1746,-296,12092,-61,-175,-214,0.01437,-0.01959,1.00105,0.12824,0.06718,0.51069,-1.12088,-0.82202,1.00134,-1.13067,-0.62166,0.105578,0.116905,0.019109,0.019109,0.859044,-0.005582,-0.009035,0.511791,-1.07948,-0.56202,61.57552
138624,1386253,1688,-274,12144,-58,-170,-214,0.01081,-0.01824,1.00414,0.15115,0.10534,0.51069,-1.04046,-0.61649,1.00436,-1.12875,-0.62169,0.105438,0.116897,0.016384,0.016384,0.859022,-0.005565,-0.009025,0.511829,-1.07725,-0.56194,61.5806
138625,1386263,1710,-322,12090,-62,-161,-216,0.01216,-0.02118,1.00093,0.12061,0.17405,0.49542,-1.21227,-0.69569,1.00122,-1.1302,-0.62255,0.105591,0.117033,0.019199,0.019199,0.859,-0.005573,-0.009038,0.511866,-1.07879,-0.56278,61.58556
138626,1386273,1706,-314,12074,-59,-158,-217,0.01191,-0.02069,0.99998,0.14351,0.19695,0.48779,-1.18532,-0.68229,1.00026,-1.1309,-0.62293,0.105693,0.117144,0.019458,0.019458,0.858978,-0.005576,-0.009044,0.511902,-1.07953,-0.5631,61.5904
138627,1386283,1686,-282,12072,-58,-160,-217,0.01068,-0.01873,0.99986,0.15115,0.18168,0.48779,-1.07302,-0.61209,1.00009,-1.12933,-0.62209,0.105587,0.117126,0.019454,0.019454,0.858957,-0.005568,-0.00903,0.511939,-1.07794,-0.56218,61.59525
138628,1386293,1670,-282,12102,-61,-170,-214,0.0097,-0.01873,1.00164,0.12824,0.10534,0.51069,-1.07111,-0.55486,1.00186,-1.12802,-0.62094,0.105484,0.117006,0.018802,0.018802,0.858934,-0.005563,-0.009015,0.511977,-1.07657,-0.56088,61.60034
138629,1386303,1680,-324,12080,-61,-172,-221,0.01032,-0.0213,1.00033,0.12824,0.09008,0.45725,-1.22002,-0.59069,1.00061,-1.12957,-0.62062,0.105653,0.11695,0.019367,0.019367,0.858913,-0.005577,-0.009019,0.512011,-1.0782,-0.56049,61.6049
138630,1386313,1686,-324,12072,-63,-163,-217,0.01068,-0.0213,0.99986,0.11298,0.15878,0.48779,-1.2206,-0.61206,1.00014,-1.13127,-0.62004,0.105821,0.116935,0.019422,0.019422,0.858891,-0.005593,-0.009022,0.512048,-1.07996,-0.55984,61.60979
138631,1386323,1742,-328,12116,-64,-161,-213,0.01412,-0.02155,1.00247,0.10534,0.17405,0.51832,-1.23143,-0.8068,1.0028,-1.13308,-0.62284,0.105992,0.117255,0.018024,0.018024,0.858868,-0.005594,-0.009055,0.512086,-1.08196,-0.56291,61.61497
138632,1386333,1666,-294,12080,-68,-161,-213,0.00946,-0.01946,1.00033,0.07481,0.17405,0.51832,-1.11466,-0.54152,1.00057,-1.13303,-0.62071,0.105958,0.117106,0.019364,0.019364,0.858845,-0.005603,-0.009038,0.512125,-1.08192,-0.56064,61.62014
138633,1386343,1654,-290,12160,-73,-161,-213,0.00872,-0.01922,1.00509,0.03664,0.17405,0.51832,-1.09541,-0.49699,1.00531,-1.13314,-0.61827,0.105902,0.116929,0.015211,0.015211,0.858822,-0.005616,-0.009015,0.512164,-1.08187,-0.55756,61.62529
138634,1386353,1716,-254,12106,-62,-158,-214,0.01252,-0.01701,1.00188,0.12061,0.19695,0.51069,-0.97267,-0.71613,1.0021,-1.13,-0.61931,0.105618,0.117103,0.018672,0.018672,0.8588,-0.005586,-0.009008,0.512202,-1.07854,-0.55866,61.63033
138635,1386363,1684,-292,12134,-58,-174,-215,0.01056,-0.01934,1.00354,0.15115,0.07481,0.50305,-1.10409,-0.60284,1.00378,-1.12911,-0.61945,0.105577,0.117076,0.017082,0.017082,0.858777,-0.005578,-0.009004,0.51224,-1.07758,-0.55868,61.63535
138636,1386373,1700,-288,12104,-57,-173,-212,0.01154,-0.0191,1.00176,0.15878,0.08244,0.52595,-1.09203,-0.66005,1.00201,-1.12789,-0.62055,0.105512,0.117148,0.018768,0.018768,0.858754,-0.005563,-0.009007,0.512279,-1.07633,-0.55978,61.64061
138637,1386383,1682,-282,12112,-59,-166,-212,0.01044,-0.01873,1.00223,0.14351,0.13588,0.52595,-1.07048,-0.59661,1.00246,-1.12646,-0.61992,0.105413,0.117106,0.018411,0.018411,0.85873,-0.005555,-0.008995,0.512318,-1.07483,-0.55905,61.64583
138638,1386393,1676,-284,12116,-66,-151,-209,0.01007,-0.01885,1.00247,0.09008,0.25038,0.54885,-1.07723,-0.57543,1.0027,-1.12571,-0.6178,0.105327,0.117032,0.01821,0.01821,0.858706,-0.005559,-0.008975,0.51236,-1.07403,-0.55677,61.65129
138639,1386403,1682,-310,12056,-64,-144,-209,0.01044,-0.02044,0.99891,0.10534,0.30382,0.54885,-1.17252,-0.59858,0.99917,-1.12662,-0.6156,0.105413,0.117,0.019388,0.019388,0.858682,-0.005576,-0.008962,0.5124,-1.075,-0.55447,61.65672
138640,1386413,1698,-292,12074,-66,-132,-208,0.01142,-0.01934,0.99998,0.09008,0.39542,0.55649,-1.10803,-0.65419,1.00023,-1.12641,-0.61362,0.105379,0.117076,0.019495,0.019495,0.858657,-0.005583,-0.008946,0.512442,-1.07481,-0.55241,61.66222
138641,1386423,1662,-282,12122,-63,-128,-211,0.00921,-0.01873,1.00283,0.11298,0.42595,0.53359,-1.06984,-0.52616,1.00305,-1.12533,-0.60903,0.105283,0.116933,0.017863,0.017863,0.858634,-0.005596,-0.008905,0.512482,-1.07363,-0.54753,61.66748
138642,1386433,1694,-276,12042,-64,-147,-215,0.01117,-0.01836,0.99807,0.10534,0.28092,0.50305,-1.05382,-0.64136,0.99831,-1.12397,-0.60803,0.105154,0.116995,0.01897,0.01897,0.858612,-0.00559,-0.008891,0.512519,-1.07223,-0.54649,61.67245
138643,1386443,1710,-310,12056,-62,-158,-215,0.01216,-0.02044,0.99891,0.12061,0.19695,0.50305,-1.17252,-0.6971,0.99919,-1.12476,-0.60897,0.105244,0.11716,0.019372,0.019372,0.858589,-0.005591,-0.008902,0.512557,-1.07308,-0.54744,61.67746
138644,1386453,1636,-302,12118,-57,-175,-217,0.00762,-0.01995,1.00259,0.15878,0.06718,0.48779,-1.14018,-0.43511,1.00282,-1.12451,-0.60632,0.105271,0.116861,0.018075,0.018075,0.858567,-0.005603,-0.008879,0.512594,-1.07287,-0.54445,61.68234
138645,1386463,1674,-284,12120,-64,-171,-211,0.00995,-0.01885,1.00271,0.10534,0.09771,0.53359,-1.07698,-0.56829,1.00294,-1.12366,-0.60583,0.10519,0.116796,0.017975,0.017975,0.858543,-0.005598,-0.00887,0.512634,-1.07195,-0.54385,61.68766
138646,1386473,1670,-296,12086,-59,-175,-220,0.0097,-0.01959,1.00069,0.14351,0.06718,0.46489,-1.12128,-0.55537,1.00093,-1.12323,-0.60534,0.105186,0.116702,0.019343,0.019343,0.858523,-0.005597,-0.008865,0.512668,-1.07154,-0.54332,61.69231
138647,1386483,1722,-306,12154,-60,-175,-217,0.01289,-0.0202,1.00473,0.13588,0.06718,0.48779,-1.15174,-0.73505,1.00502,-1.12338,-0.60785,0.105229,0.116894,0.015636,0.015636,0.858501,-0.005585,-0.008889,0.512705,-1.07179,-0.5463,61.69718
138648,1386493,1642,-286,12068,-51,-174,-211,0.00798,-0.01897,0.99962,0.20458,0.07481,0.53359,-1.08734,-0.45751,0.99983,-1.1217,-0.60533,0.105164,0.116614,0.019545,0.019545,0.858477,-0.005584,-0.008862,0.512745,-1.07011,-0.54367,61.70251
138649,1386503,1720,-308,12052,-47,-187,-212,0.01277,-0.02032,0.99867,0.23511,-0.02443,0.52595,-1.16576,-0.73246,0.99896,-1.12128,-0.60917,0.105247,0.116845,0.019327,0.019327,0.858454,-0.005563,-0.00889,0.512784,-1.06972,-0.54759,61.70778
138650,1386513,1678,-326,12040,-45,-182,-209,0.01019,-0.02143,0.99796,0.25038,0.01374,0.54885,-1.22996,-0.58505,0.99824,-1.12191,-0.60972,0.105445,0.1168,0.018942,0.018942,0.858429,-0.005566,-0.008897,0.512825,-1.07046,-0.5481,61.71331
138651,1386523,1702,-350,12104,-56,-173,-208,0.01167,-0.0229,1.00176,0.16641,0.08244,0.55649,-1.30945,-0.66701,1.00209,-1.12482,-0.61113,0.105779,0.116901,0.018712,0.018712,0.858404,-0.005583,-0.008922,0.512867,-1.07361,-0.54954,61.7189
138652,1386533,1660,-318,12096,-52,-167,-213,0.00909,-0.02094,1.00128,0.19695,0.12824,0.51832,-1.19781,-0.51993,1.00154,-1.12532,-0.60928,0.105913,0.116736,0.019066,0.019066,0.85838,-0.005595,-0.00891,0.512906,-1.07417,-0.54757,61.72409
138653,1386543,1684,-292,12104,-51,-167,-212,0.01056,-0.01934,1.00176,0.20458,0.12824,0.52595,-1.10606,-0.60391,1.002,-1.12399,-0.60907,0.10588,0.116727,0.018766,0.018766,0.858357,-0.005586,-0.008902,0.512945,-1.07281,-0.54731,61.72933
138654,1386553,1678,-274,12052,-51,-167,-219,0.01019,-0.01824,0.99867,0.20458,0.12824,0.47252,-1.04616,-0.58467,0.99889,-1.12152,-0.60848,0.10574,0.116682,0.019266,0.019266,0.858336,-0.005569,-0.008886,0.512981,-1.07027,-0.54668,61.73403
138655,1386563,1688,-292,12108,-50,-173,-212,0.01081,-0.01934,1.002,0.21221,0.08244,0.52595,-1.1058,-0.6178,1.00224,-1.12018,-0.60899,0.105714,0.116698,0.018573,0.018573,0.858313,-0.005556,-0.008884,0.51302,-1.06891,-0.54718,61.73927
138656,1386573,1672,-250,12036,-47,-195,-213,0.00982,-0.01676,0.99772,0.23511,-0.0855,0.51832,-0.96264,-0.5641,0.99791,-1.11597,-0.61014,0.105437,0.116615,0.018687,0.018687,0.85829,-0.005518,-0.008873,0.513059,-1.06449,-0.54827,61.74445
138657,1386583,1634,-316,12050,-47,-206,-203,0.00749,-0.02081,0.99855,0.23511,-0.16947,0.59466,-1.19405,-0.42983,0.9988,-1.1162,-0.60948,0.105582,0.116281,0.019215,0.019215,0.858263,-0.005523,-0.008869,0.513104,-1.06478,-0.54749,61.75046
138658,1386593,1682,-344,12082,-41,-195,-209,0.01044,-0.02253,1.00045,0.28092,-0.0855,0.54885,-1.2901,-0.59763,1.00076,-1.11785,-0.61123,0.105904,0.116256,0.019369,0.019369,0.858238,-0.005528,-0.00889,0.513145,-1.06653,-0.54925,61.756
138659,1386603,1652,-254,12120,-45,-182,-217,0.0086,-0.01701,1.00271,0.25038,0.01374,0.48779,-0.97186,-0.49118,1.00289,-1.1138,-0.61008,0.105658,0.116049,0.017991,0.017991,0.858216,-0.005501,-0.00886,0.513182,-1.0622,-0.54787,61.76086
138660,1386613,1630,-318,12050,-44,-176,-215,0.00725,-0.02094,0.99855,0.25802,0.05954,0.50305,-1.20109,-0.41574,0.9988,-1.11398,-0.6069,0.10582,0.115694,0.019205,0.019205,0.858194,-0.005518,-0.008837,0.51322,-1.06244,-0.54454,61.7659
138661,1386623,1730,-330,12194,-58,-155,-219,0.01338,-0.02167,1.00711,0.15115,0.21985,0.47252,-1.23274,-0.76121,1.00743,-1.11504,-0.60782,0.105962,0.11588,0.012632,0.012632,0.858173,-0.005522,-0.008859,0.513255,-1.0642,-0.54636,61.77062
138662,1386633,1692,-274,12130,-60,-146,-212,0.01105,-0.01824,1.0033,0.13588,0.28855,0.52595,-1.04132,-0.63102,1.00353,-1.11346,-0.60653,0.105841,0.115921,0.01745,0.01745,0.858149,-0.005515,-0.008841,0.513295,-1.06244,-0.54505,61.77583
138663,1386643,1648,-302,12032,-61,-141,-211,0.00835,-0.01995,0.99748,0.12824,0.32672,0.53359,-1.14602,-0.47963,0.99772,-1.11384,-0.60209,0.105899,0.115701,0.018649,0.018649,0.858126,-0.005538,-0.008808,0.513334,-1.06287,-0.54038,61.78111
138664,1386653,1612,-310,12190,-74,-138,-211,0.00614,-0.02044,1.00687,0.02901,0.34962,0.53359,-1.16325,-0.34947,1.0071,-1.11525,-0.59647,0.105959,0.115389,0.013125,0.013125,0.858102,-0.005583,-0.008762,0.513375,-1.06454,-0.53315,61.7864
138665,1386663,1678,-256,12088,-72,-136,-207,0.01019,-0.01713,1.00081,0.04427,0.36489,0.56412,-0.98073,-0.58343,1.00101,-1.11323,-0.59377,0.105709,0.11537,0.019513,0.019513,0.858077,-0.005579,-0.008732,0.513417,-1.06247,-0.5304,61.79196
138666,1386673,1654,-308,12018,-71,-141,-206,0.00872,-0.02032,0.99665,0.05191,0.32672,0.57176,-1.16813,-0.50119,0.99689,-1.11475,-0.59003,0.105802,0.115215,0.017985,0.017985,0.858051,-0.005609,-0.00871,0.513459,-1.0641,-0.52645,61.79763
138667,1386683,1644,-276,12182,-71,-148,-207,0.00811,-0.01836,1.00639,0.05191,0.27328,0.56412,-1.04511,-0.46143,1.00659,-1.11432,-0.58669,0.10571,0.115049,0.01381,0.01381,0.858026,-0.00562,-0.008676,0.513502,-1.06327,-0.52237,61.80322
138668,1386693,1708,-320,12136,-54,-155,-216,0.01203,-0.02106,1.00366,0.18168,0.21985,0.49542,-1.20197,-0.68679,1.00395,-1.11507,-0.58738,0.105854,0.115214,0.017158,0.017158,0.858004,-0.005623,-0.008688,0.513538,-1.06423,-0.52332,61.80816
138669,1386703,1656,-308,11952,-35,-166,-218,0.00884,-0.02032,0.99273,0.32672,0.13588,0.48015,-1.17274,-0.51025,0.99297,-1.11367,-0.58615,0.10593,0.115116,0.013351,0.013351,0.857983,-0.005622,-0.00867,0.513575,-1.06307,-0.52162,61.81295
138670,1386713,1714,-298,12014,-53,-176,-215,0.0124,-0.01971,0.99641,0.18931,0.05954,0.50305,-1.13315,-0.71297,0.99668,-1.1132,-0.58897,0.105964,0.115331,0.01797,0.01797,0.85796,-0.005604,-0.008692,0.513612,-1.06261,-0.52472,61.81799
138671,1386723,1696,-266,12112,-62,-175,-219,0.0113,-0.01775,1.00223,0.12061,0.06718,0.47252,-1.01439,-0.64573,1.00245,-1.11119,-0.59051,0.105788,0.115432,0.018803,0.018803,0.857939,-0.00558,-0.008695,0.513647,-1.06049,-0.52636,61.82269
138672,1386733,1630,-324,12056,-48,-177,-216,0.00725,-0.0213,0.99891,0.22748,0.05191,0.49542,-1.22176,-0.41559,0.99916,-1.11219,-0.58767,0.105998,0.115103,0.019767,0.019767,0.857917,-0.0056,-0.008678,0.513685,-1.06148,-0.52354,61.82766
138673,1386743,1576,-298,12012,-55,-174,-217,0.00393,-0.01971,0.99629,0.17405,0.07481,0.48779,-1.13328,-0.22617,0.99649,-1.11189,-0.58166,0.106035,0.114494,0.017739,0.017739,0.857895,-0.005628,-0.008627,0.513722,-1.06121,-0.51683,61.83253
138674,1386753,1700,-316,12108,-63,-161,-221,0.01154,-0.02081,1.002,0.11298,0.17405,0.45725,-1.18994,-0.65987,1.00228,-1.1133,-0.58255,0.106175,0.114635,0.018923,0.018923,0.857875,-0.005634,-0.008642,0.513756,-1.06268,-0.51785,61.8371
138675,1386763,1726,-264,12026,-53,-128,-229,0.01314,-0.01762,0.99712,0.18931,0.42595,0.39618,-1.01254,-0.75479,0.99737,-1.11061,-0.5827,0.105998,0.114945,0.018609,0.018609,0.857857,-0.00561,-0.008632,0.513785,-1.05982,-0.51822,61.84098
138676,1386773,1690,-228,12008,-46,-111,-226,0.01093,-0.01541,0.99605,0.24275,0.55573,0.41908,-0.88664,-0.62858,0.99623,-1.10536,-0.57917,0.10563,0.115028,0.017443,0.017443,0.857839,-0.005582,-0.00858,0.513816,-1.05402,-0.51476,61.84504
138677,1386783,1682,-290,12126,-67,-112,-233,0.01044,-0.01922,1.00307,0.08244,0.54809,0.36565,-1.09761,-0.59611,1.0033,-1.10545,-0.57522,0.105617,0.115064,0.017963,0.017963,0.857823,-0.0056,-0.008551,0.513843,-1.05409,-0.51083,61.84859
138678,1386793,1620,-278,12102,-78,-122,-238,0.00663,-0.01848,1.00164,-0.00153,0.47176,0.32748,-1.05708,-0.37939,1.00183,-1.10557,-0.56795,0.105526,0.114713,0.019259,0.019259,0.857809,-0.005634,-0.008496,0.513868,-1.05419,-0.50343,61.85178
138679,1386803,1646,-306,12090,-77,-150,-247,0.00823,-0.0202,1.00093,0.00611,0.25802,0.25878,-1.15612,-0.47095,1.00116,-1.10753,-0.56465,0.105619,0.114535,0.019613,0.019613,0.857797,-0.005663,-0.008481,0.513887,-1.05619,-0.50015,61.85434
138680,1386813,1652,-250,11986,-83,-161,-242,0.0086,-0.01676,0.99475,-0.03969,0.17405,0.29695,-0.96551,-0.49511,0.99493,-1.10671,-0.56296,0.105403,0.114432,0.015849,0.015849,0.857784,-0.005661,-0.008461,0.513909,-1.05484,-0.49826,61.85727
138681,1386823,1650,-278,12036,-87,-146,-244,0.00847,-0.01848,0.99772,-0.07023,0.28855,0.28168,-1.06124,-0.48658,0.99793,-1.10757,-0.55979,0.105317,0.114297,0.019092,0.019092,0.857772,-0.005682,-0.008441,0.51393,-1.0557,-0.49509,61.86003
138682,1386833,1650,-296,12018,-84,-140,-247,0.00847,-0.01959,0.99665,-0.04733,0.33435,0.25878,-1.12583,-0.48709,0.99688,-1.1094,-0.55631,0.105346,0.114175,0.018147,0.018147,0.85776,-0.005712,-0.008423,0.513949,-1.05758,-0.49154,61.86257
138683,1386843,1604,-288,11964,-84,-144,-252,0.00565,-0.0191,0.99344,-0.04733,0.30382,0.22061,-1.10117,-0.3259,0.99364,-1.11079,-0.55116,0.105333,0.113867,0.014239,0.014239,0.857751,-0.00575,-0.008382,0.513966,-1.05891,-0.48528,61.86473
138684,1386853,1674,-304,12020,-91,-142,-255,0.00995,-0.02008,0.99677,-0.10076,0.31908,0.19771,-1.15389,-0.57166,0.99702,-1.1136,-0.54952,0.105405,0.113906,0.018365,0.018365,0.857742,-0.005778,-0.008384,0.51398,-1.06182,-0.48376,61.86666
138685,1386863,1678,-312,12040,-99,-147,-258,0.01019,-0.02057,0.99796,-0.16183,0.28092,0.17481,-1.18068,-0.58506,0.99822,-1.11752,-0.54857,0.105523,0.113974,0.01936,0.01936,0.857734,-0.005811,-0.008396,0.513993,-1.06582,-0.48294,61.86839
138686,1386873,1670,-278,12072,-96,-161,-260,0.0097,-0.01848,0.99986,-0.13893,0.17405,0.15954,-1.05897,-0.55585,1.00008,-1.11875,-0.54813,0.105407,0.113989,0.019939,0.019939,0.857727,-0.005822,-0.008399,0.514004,-1.06708,-0.48263,61.86995
138687,1386883,1612,-278,12054,-97,-163,-254,0.00614,-0.01848,0.99879,-0.14656,0.15878,0.20534,-1.0601,-0.35231,0.99898,-1.12006,-0.54383,0.105293,0.113624,0.019705,0.019705,0.857718,-0.005851,-0.008374,0.51402,-1.06843,-0.4784,61.87197
138688,1386893,1634,-354,12106,-98,-159,-257,0.00749,-0.02314,1.00188,-0.1542,0.18931,0.18244,-1.32332,-0.42838,1.00217,-1.12647,-0.5409,0.105655,0.113418,0.019,0.019,0.857709,-0.005914,-0.008382,0.514033,-1.07506,-0.47548,61.8738
138689,1386903,1656,-292,12064,-100,-159,-258,0.00884,-0.01934,0.99938,-0.16947,0.18931,0.17481,-1.10869,-0.50686,0.99961,-1.12881,-0.53948,0.105616,0.113355,0.019836,0.019836,0.857701,-0.005937,-0.008383,0.514046,-1.07744,-0.47418,61.87552
138690,1386913,1618,-286,12026,-94,-161,-251,0.00651,-0.01897,0.99712,-0.12366,0.17405,0.22824,-1.09006,-0.37405,0.99733,-1.13035,-0.53582,0.105544,0.113066,0.018537,0.018537,0.857691,-0.005965,-0.008361,0.514063,-1.07895,-0.47041,61.87778
138691,1386923,1614,-298,11972,-101,-162,-252,0.00627,-0.01971,0.99392,-0.1771,0.16641,0.22061,-1.13599,-0.36111,0.99413,-1.13321,-0.5327,0.105548,0.112821,0.014826,0.014826,0.857681,-0.006004,-0.008346,0.51408,-1.08184,-0.46659,61.87996
138692,1386933,1628,-276,12072,-98,-164,-243,0.00712,-0.01836,0.99986,-0.1542,0.15115,0.28931,-1.05194,-0.40819,1.00005,-1.13414,-0.52985,0.10539,0.112587,0.019901,0.019901,0.857668,-0.006023,-0.00833,0.514101,-1.0828,-0.46386,61.88281
138693,1386943,1668,-294,12106,-86,-163,-242,0.00958,-0.01946,1.00188,-0.0626,0.15878,0.29695,-1.11294,-0.5477,1.00211,-1.13539,-0.52973,0.105348,0.11262,0.019037,0.019037,0.857655,-0.006032,-0.008336,0.514123,-1.08405,-0.46388,61.88576
138694,1386953,1622,-308,12026,-83,-166,-241,0.00676,-0.02032,0.99712,-0.03969,0.13588,0.30458,-1.16757,-0.38814,0.99735,-1.13741,-0.52687,0.105402,0.112371,0.018581,0.018581,0.857641,-0.006061,-0.008324,0.514146,-1.08613,-0.46096,61.88879
138695,1386963,1684,-298,12088,-87,-177,-240,0.01056,-0.01971,1.00081,-0.07023,0.05191,0.31221,-1.12817,-0.60448,1.00106,-1.13895,-0.52899,0.105382,0.112514,0.019636,0.019636,0.857627,-0.006062,-0.008348,0.514169,-1.0877,-0.46325,61.89192
138696,1386973,1670,-310,12014,-87,-205,-235,0.0097,-0.02044,0.99641,-0.07023,-0.16183,0.35038,-1.17546,-0.55775,0.99667,-1.14133,-0.5322,0.105441,0.112558,0.01788,0.01788,0.857611,-0.006065,-0.008385,0.514195,-1.09017,-0.46667,61.89546
138697,1386983,1602,-294,12006,-73,-209,-235,0.00553,-0.01946,0.99594,0.03664,-0.19237,0.35038,-1.11958,-0.31802,0.99614,-1.14163,-0.53149,0.105404,0.112202,0.017309,0.017309,0.857595,-0.006071,-0.008378,0.514222,-1.09041,-0.4656,61.89901
138698,1386993,1664,-288,12082,-68,-204,-228,0.00933,-0.0191,1.00045,0.07481,-0.1542,0.40382,-1.09346,-0.53443,1.00068,-1.14097,-0.53416,0.105313,0.112202,0.019767,0.019767,0.857577,-0.006053,-0.008397,0.514252,-1.08976,-0.46844,61.90306
138699,1387003,1618,-302,12056,-61,-172,-227,0.00651,-0.01995,0.99891,0.12824,0.09008,0.41145,-1.14439,-0.37338,0.99913,-1.14082,-0.53121,0.10532,0.111902,0.019681,0.019681,0.857558,-0.006065,-0.008375,0.514283,-1.0896,-0.46556,61.90718
138700,1387013,1658,-306,12050,-54,-164,-229,0.00897,-0.0202,0.99855,0.18168,0.15115,0.39618,-1.15887,-0.51432,0.99879,-1.14042,-0.5305,0.105355,0.111871,0.019524,0.019524,0.857541,-0.006064,-0.008368,0.514313,-1.0892,-0.46495,61.91113
138701,1387023,1610,-282,11982,-68,-146,-230,0.00602,-0.01873,0.99451,0.07481,0.28855,0.38855,-1.07879,-0.34676,0.9947,-1.13976,-0.52591,0.105264,0.111604,0.015514,0.015514,0.857523,-0.006081,-0.008325,0.514342,-1.08828,-0.45969,61.91496
138702,1387033,1604,-292,12042,-69,-141,-232,0.00565,-0.01934,0.99807,0.06718,0.32672,0.37328,-1.11014,-0.32438,0.99828,-1.13957,-0.51991,0.105209,0.111239,0.019275,0.019275,0.857507,-0.006106,-0.008279,0.51437,-1.08807,-0.45365,61.91864
138703,1387043,1636,-254,12052,-75,-155,-238,0.00762,-0.01701,0.99867,0.02137,0.21985,0.32748,-0.97579,-0.43685,0.99884,-1.13719,-0.51722,0.104904,0.111087,0.019561,0.019561,0.857493,-0.006099,-0.008249,0.514394,-1.08564,-0.45106,61.92185
138704,1387053,1624,-300,12022,-82,-164,-239,0.00688,-0.01983,0.99689,-0.03206,0.15115,0.31985,-1.13966,-0.39529,0.99711,-1.13857,-0.5146,0.104906,0.110877,0.018294,0.018294,0.857478,-0.006121,-0.008236,0.514418,-1.08706,-0.44838,61.92502
138705,1387063,1642,-290,12086,-82,-167,-233,0.00798,-0.01922,1.00069,-0.03206,0.12824,0.36565,-1.10022,-0.45702,1.00091,-1.13916,-0.5133,0.104832,0.11077,0.019638,0.019638,0.857462,-0.006131,-0.00823,0.514445,-1.08767,-0.4472,61.92864
138706,1387073,1642,-240,12090,-81,-158,-238,0.00798,-0.01615,1.00093,-0.02443,0.19695,0.32748,-0.92445,-0.45694,1.00109,-1.13624,-0.51135,0.104432,0.110667,0.019544,0.019544,0.857448,-0.006117,-0.008203,0.51447,-1.08468,-0.44536,61.93187
138707,1387083,1638,-314,12048,-81,-157,-238,0.00774,-0.02069,0.99843,-0.02443,0.20458,0.32748,-1.18715,-0.44396,0.99868,-1.13849,-0.50912,0.104523,0.110545,0.019416,0.019416,0.857433,-0.006143,-0.008197,0.514494,-1.08699,-0.44323,61.93512
138708,1387093,1656,-272,12066,-77,-176,-232,0.00884,-0.01811,0.9995,0.00611,0.05954,0.37328,-1.03825,-0.50681,0.9997,-1.13748,-0.50958,0.104334,0.110539,0.019713,0.019713,0.857416,-0.006133,-0.008197,0.514522,-1.08599,-0.44383,61.93884
138709,1387103,1656,-320,12096,-74,-171,-236,0.00884,-0.02106,1.00128,0.02901,0.09771,0.34275,-1.20482,-0.50588,1.00154,-1.13951,-0.50963,0.104455,0.110532,0.019256,0.019256,0.857401,-0.006147,-0.008209,0.514547,-1.08809,-0.44403,61.94226
138710,1387113,1578,-292,12014,-72,-181,-233,0.00406,-0.01934,0.99641,0.04427,0.02137,0.36565,-1.11199,-0.2332,0.99661,-1.13962,-0.50562,0.104408,0.110067,0.017693,0.017693,0.857384,-0.006168,-0.008176,0.514575,-1.08815,-0.43958,61.94591
138711,1387123,1622,-268,12006,-79,-191,-235,0.00676,-0.01787,0.99594,-0.00916,-0.05496,0.35038,-1.02786,-0.38862,0.99612,-1.13881,-0.50523,0.104224,0.109874,0.01717,0.01717,0.857368,-0.006162,-0.008167,0.514601,-1.08708,-0.43906,61.94941
138712,1387133,1644,-252,12012,-75,-197,-228,0.00811,-0.01689,0.99629,0.02137,-0.10076,0.40382,-0.97107,-0.46612,0.99647,-1.13668,-0.50661,0.103944,0.109806,0.017581,0.017581,0.857351,-0.006136,-0.008167,0.514632,-1.08461,-0.44052,61.95346
138713,1387143,1662,-286,12110,-74,-196,-230,0.00921,-0.01897,1.00212,0.02901,-0.09313,0.38855,-1.08463,-0.52653,1.00234,-1.13644,-0.50898,0.10385,0.109837,0.018743,0.018743,0.857333,-0.006123,-0.008186,0.514661,-1.08435,-0.44309,61.95734
138714,1387153,1630,-290,12040,-72,-183,-231,0.00725,-0.01922,0.99796,0.04427,0.00611,0.38092,-1.10323,-0.41601,0.99817,-1.13639,-0.50822,0.103788,0.109667,0.019111,0.019111,0.857316,-0.006125,-0.008181,0.514689,-1.08431,-0.44242,61.96117
138715,1387163,1682,-304,12056,-70,-177,-229,0.01044,-0.02008,0.99891,0.05954,0.05191,0.39618,-1.15142,-0.59858,0.99916,-1.13712,-0.51055,0.103816,0.109834,0.019593,0.019593,0.857298,-0.006119,-0.008203,0.514719,-1.08509,-0.44495,61.96513
138716,1387173,1646,-278,12078,-77,-166,-223,0.00823,-0.01848,1.00021,0.00611,0.13588,0.44198,-1.05859,-0.4713,1.00042,-1.13653,-0.50953,0.103667,0.109761,0.019671,0.019671,0.857278,-0.006119,-0.008194,0.514752,-1.08453,-0.44403,61.96951
138717,1387183,1598,-254,12104,-75,-163,-226,0.00528,-0.01701,1.00176,0.02137,0.15878,0.41908,-0.97278,-0.30215,1.00192,-1.13423,-0.50511,0.103371,0.109389,0.018997,0.018997,0.85726,-0.006121,-0.00815,0.514783,-1.08212,-0.43954,61.97366
138718,1387193,1648,-306,12072,-76,-181,-223,0.00835,-0.0202,0.99986,0.01374,0.02137,0.44198,-1.15735,-0.47849,1.0001,-1.13556,-0.50544,0.103412,0.109337,0.01967,0.01967,0.85724,-0.006129,-0.00816,0.514816,-1.08352,-0.44002,61.97809
138719,1387203,1634,-310,12068,-78,-190,-225,0.00749,-0.02044,0.99962,-0.00153,-0.04733,0.42672,-1.17169,-0.42937,0.99986,-1.1373,-0.50549,0.103478,0.109193,0.019645,0.019645,0.85722,-0.006141,-0.00817,0.514848,-1.08534,-0.4402,61.98237
138720,1387213,1624,-314,12100,-75,-191,-224,0.00688,-0.02069,1.00152,0.02137,-0.05496,0.43435,-1.18349,-0.39346,1.00176,-1.13898,-0.50496,0.10356,0.108988,0.01905,0.01905,0.857201,-0.006156,-0.008174,0.514881,-1.08711,-0.43973,61.98674
138721,1387223,1662,-298,12096,-68,-185,-221,0.00921,-0.01971,1.00128,0.07481,-0.00916,0.45725,-1.12764,-0.52696,1.00152,-1.13905,-0.50654,0.103539,0.109025,0.019183,0.019183,0.85718,-0.006149,-0.008188,0.514915,-1.08721,-0.44148,61.99133
138722,1387233,1624,-292,12042,-68,-184,-222,0.00688,-0.01934,0.99807,0.07481,-0.00153,0.44962,-1.11014,-0.39482,0.99829,-1.13878,-0.5055,0.103486,0.108822,0.019056,0.019056,0.85716,-0.006151,-0.00818,0.514949,-1.08695,-0.44048,61.99582
138723,1387243,1654,-282,12044,-66,-173,-219,0.00872,-0.01873,0.99819,0.09008,0.08244,0.47252,-1.07481,-0.50043,0.99841,-1.13769,-0.50566,0.10337,0.108812,0.019119,0.019119,0.857139,-0.006141,-0.008177,0.514984,-1.08584,-0.44076,62.00052
138724,1387253,1618,-318,12022,-62,-160,-215,0.00651,-0.02094,0.99689,0.12061,0.18168,0.50305,-1.20309,-0.37413,0.99713,-1.1387,-0.50256,0.103482,0.108587,0.018118,0.018118,0.857116,-0.006164,-0.008158,0.515022,-1.087,-0.43753,62.00554
138725,1387263,1666,-308,12102,-56,-152,-212,0.00946,-0.02032,1.00164,0.16641,0.24275,0.52595,-1.16231,-0.5408,1.00189,-1.13853,-0.50197,0.103526,0.108658,0.018929,0.018929,0.857093,-0.006165,-0.008155,0.515061,-1.08688,-0.43706,62.01076
138726,1387273,1660,-236,12032,-57,-169,-219,0.00909,-0.01591,0.99748,0.15878,0.11298,0.47252,-0.91355,-0.52195,0.99765,-1.13381,-0.5023,0.103131,0.108694,0.018578,0.018578,0.857072,-0.006125,-0.008136,0.515096,-1.08188,-0.43753,62.01544
138727,1387283,1678,-292,12080,-65,-167,-211,0.01019,-0.01934,1.00033,0.09771,0.12824,0.53359,-1.10763,-0.58369,1.00057,-1.13335,-0.5037,0.103082,0.108845,0.019523,0.019523,0.857048,-0.006115,-0.008146,0.515136,-1.08146,-0.43907,62.02076
138728,1387293,1632,-320,12102,-69,-163,-213,0.00737,-0.02106,1.00164,0.06718,0.15878,0.51832,-1.2044,-0.42148,1.00189,-1.13505,-0.50165,0.103209,0.108698,0.018906,0.018906,0.857025,-0.006137,-0.008139,0.515174,-1.08328,-0.43703,62.02592
138729,1387303,1660,-316,12032,-62,-170,-216,0.00909,-0.02081,0.99748,0.12061,0.10534,0.49542,-1.19533,-0.52191,0.99774,-1.136,-0.50206,0.103315,0.108734,0.018627,0.018627,0.857002,-0.006142,-0.008148,0.515211,-1.08434,-0.43757,62.03088
138730,1387313,1648,-232,12102,-59,-174,-218,0.00835,-0.01566,1.00164,0.14351,0.07481,0.48015,-0.89573,-0.47768,1.0018,-1.13105,-0.50193,0.102884,0.108689,0.018959,0.018959,0.856981,-0.006103,-0.008125,0.515247,-1.07918,-0.43753,62.03563
138731,1387323,1684,-264,12008,-58,-163,-216,0.01056,-0.01762,0.99605,0.15115,0.15878,0.49542,-1.01363,-0.60738,0.99627,-1.12856,-0.50325,0.102694,0.108862,0.017202,0.017202,0.856959,-0.006075,-0.008125,0.515284,-1.07641,-0.4392,62.04054
138732,1387333,1686,-262,12074,-63,-164,-217,0.01068,-0.0175,0.99998,0.11298,0.15115,0.48779,-1.00263,-0.61203,1.00019,-1.12599,-0.50497,0.10246,0.109065,0.019573,0.019573,0.856938,-0.006047,-0.008128,0.51532,-1.07384,-0.44106,62.04539
138733,1387343,1634,-330,12076,-72,-160,-211,0.00749,-0.02167,1.0001,0.04427,0.18168,0.53359,-1.24138,-0.42915,1.00036,-1.12881,-0.50278,0.102673,0.108926,0.019535,0.019535,0.856914,-0.006078,-0.008125,0.51536,-1.07679,-0.4389,62.0507
138734,1387353,1582,-306,12078,-82,-164,-209,0.0043,-0.0202,1.00021,-0.03206,0.15115,0.54885,-1.15694,-0.24637,1.00043,-1.13068,-0.49736,0.102722,0.108452,0.019507,0.019507,0.856889,-0.006117,-0.008093,0.515401,-1.07876,-0.43344,62.05618
138735,1387363,1606,-264,12132,-72,-184,-217,0.00577,-0.01762,1.00342,0.04427,-0.00153,0.48779,-1.00619,-0.32967,1.00359,-1.1291,-0.49553,0.102517,0.108175,0.01733,0.01733,0.856867,-0.006113,-0.00807,0.515438,-1.07692,-0.43131,62.06105
138736,1387373,1684,-254,12044,-64,-178,-216,0.01056,-0.01701,0.99819,0.10534,0.04427,0.49542,-0.97626,-0.60609,0.99839,-1.12616,-0.49827,0.102241,0.108374,0.019067,0.019067,0.856845,-0.006076,-0.008078,0.515475,-1.07389,-0.43426,62.06598
138737,1387383,1674,-288,12120,-81,-172,-215,0.00995,-0.0191,1.00271,-0.02443,0.09008,0.50305,-1.09099,-0.56828,1.00294,-1.12677,-0.49971,0.102178,0.108493,0.018013,0.018013,0.856823,-0.006073,-0.008094,0.515512,-1.07451,-0.43593,62.071
138738,1387393,1608,-294,12050,-83,-175,-215,0.0059,-0.01946,0.99855,-0.03969,0.06718,0.50305,-1.11665,-0.33831,0.99876,-1.12797,-0.49701,0.102157,0.108198,0.01926,0.01926,0.8568,-0.006095,-0.008079,0.51555,-1.07579,-0.43321,62.07602
138739,1387403,1534,-318,12060,-72,-168,-209,0.00136,-0.02094,0.99914,0.04427,0.12061,0.54885,-1.20037,-0.07775,0.99936,-1.12994,-0.48873,0.10229,0.107424,0.019461,0.019461,0.856775,-0.006148,-0.008026,0.515591,-1.07788,-0.4248,62.08151
138740,1387413,1656,-264,12096,-63,-189,-216,0.00884,-0.01762,1.00128,0.11298,-0.03969,0.49542,-1.00833,-0.50592,1.00148,-1.12751,-0.4905,0.10207,0.107453,0.019113,0.019113,0.856753,-0.00612,-0.00803,0.515628,-1.0754,-0.42672,62.08647
138741,1387423,1674,-256,12000,-68,-191,-217,0.00995,-0.01713,0.99558,0.07481,-0.05496,0.48779,-0.98588,-0.57237,0.99578,-1.12543,-0.49345,0.101846,0.107579,0.016608,0.016608,0.856731,-0.006086,-0.008044,0.515665,-1.07293,-0.43004,62.09132
138742,1387433,1686,-254,11982,-67,-182,-211,0.01068,-0.01701,0.99451,0.08244,0.01374,0.53359,-0.97987,-0.6154,0.99471,-1.12339,-0.49625,0.101634,0.107755,0.015345,0.015345,0.856707,-0.006051,-0.008058,0.515704,-1.07033,-0.43341,62.09665
138743,1387443,1664,-268,12032,-67,-181,-214,0.00933,-0.01787,0.99748,0.08244,0.02137,0.51069,-1.02627,-0.53603,0.99768,-1.12177,-0.49784,0.101462,0.107824,0.018634,0.018634,0.856685,-0.006031,-0.008063,0.515742,-1.06867,-0.43514,62.10174
138744,1387453,1648,-328,12112,-58,-187,-210,0.00835,-0.02155,1.00223,0.15115,-0.02443,0.54122,-1.23172,-0.47734,1.0025,-1.12331,-0.49876,0.101656,0.107786,0.018479,0.018479,0.85666,-0.006039,-0.008079,0.515783,-1.07044,-0.43612,62.10719
138745,1387463,1664,-272,12106,-59,-172,-209,0.00933,-0.01811,1.00188,0.14351,0.09008,0.54885,-1.03579,-0.53368,1.00208,-1.12125,-0.49959,0.101501,0.107848,0.018812,0.018812,0.856635,-0.006019,-0.008077,0.515824,-1.06836,-0.43706,62.11265
138746,1387473,1670,-232,12056,-74,-173,-207,0.0097,-0.01566,0.99891,0.02901,0.08244,0.56412,-0.89818,-0.5564,0.99908,-1.11763,-0.50094,0.101088,0.107952,0.019445,0.019445,0.85661,-0.005985,-0.008072,0.515866,-1.06471,-0.43852,62.11825
138747,1387483,1650,-290,12076,-72,-166,-206,0.00847,-0.01922,1.0001,0.04427,0.13588,0.57176,-1.10087,-0.48541,1.00032,-1.11786,-0.50036,0.101056,0.107924,0.019571,0.019571,0.856585,-0.005989,-0.008069,0.515908,-1.06504,-0.43799,62.12396
138748,1387493,1658,-266,12074,-73,-172,-205,0.00897,-0.01775,0.99998,0.03664,0.09008,0.57939,-1.01668,-0.51361,1.00017,-1.11651,-0.5008,0.100867,0.107948,0.019565,0.019565,0.856559,-0.005977,-0.008068,0.515952,-1.06375,-0.43849,62.12971
138749,1387503,1646,-276,12066,-70,-191,-210,0.00823,-0.01836,0.9995,0.05954,-0.05496,0.54122,-1.05231,-0.47164,0.9997,-1.11566,-0.50183,0.100747,0.107891,0.019535,0.019535,0.856535,-0.005966,-0.008073,0.515992,-1.06296,-0.43961,62.13515
138750,1387513,1710,-264,12030,-62,-196,-206,0.01216,-0.01762,0.99736,0.12061,-0.09313,0.57176,-1.0123,-0.69822,0.99759,-1.11355,-0.50743,0.100567,0.108232,0.018483,0.018483,0.856509,-0.005922,-0.008108,0.516034,-1.06079,-0.44557,62.14086
138751,1387523,1694,-230,12054,-61,-198,-211,0.01117,-0.01554,0.99879,0.12824,-0.1084,0.53359,-0.89125,-0.64094,0.99897,-1.10898,-0.51213,0.10016,0.108472,0.019336,0.019336,0.856485,-0.005865,-0.008124,0.516074,-1.05617,-0.45046,62.14619
138752,1387533,1618,-320,12112,-65,-193,-211,0.00651,-0.02106,1.00223,0.09771,-0.07023,0.53359,-1.20368,-0.37213,1.00248,-1.11075,-0.51131,0.100325,0.108225,0.018415,0.018415,0.856461,-0.005884,-0.008126,0.516114,-1.05816,-0.44951,62.15157
138753,1387543,1620,-290,12052,-67,-177,-203,0.00663,-0.01922,0.99867,0.08244,0.05191,0.59466,-1.10244,-0.38051,0.99888,-1.11077,-0.50934,0.100309,0.107985,0.019287,0.019287,0.856434,-0.005894,-0.008112,0.516159,-1.05827,-0.4475,62.15751
138754,1387553,1678,-266,12036,-59,-160,-207,0.01019,-0.01775,0.99772,0.14351,0.18168,0.56412,-1.01898,-0.58523,0.99793,-1.10862,-0.51004,0.100147,0.108121,0.018725,0.018725,0.856409,-0.005873,-0.008108,0.516201,-1.0561,-0.44832,62.16311
138755,1387563,1684,-270,12108,-64,-165,-204,0.01056,-0.01799,1.002,0.10534,0.14351,0.58702,-1.02866,-0.60378,1.00221,-1.10708,-0.51144,0.100006,0.108287,0.018617,0.018617,0.856383,-0.005854,-0.008113,0.516245,-1.05454,-0.44988,62.16896
138756,1387573,1686,-254,12152,-68,-169,-202,0.01068,-0.01701,1.00461,0.07481,0.11298,0.60229,-0.97002,-0.60922,1.00481,-1.10515,-0.51294,0.099799,0.108434,0.015902,0.015902,0.856356,-0.005828,-0.008117,0.516289,-1.05219,-0.45175,62.17494
138757,1387583,1654,-316,12158,-64,-172,-203,0.00872,-0.02081,1.00497,0.10534,0.09008,0.59466,-1.18643,-0.49704,1.00522,-1.10635,-0.51288,0.099918,0.108411,0.015438,0.015438,0.856329,-0.00584,-0.008124,0.516334,-1.0538,-0.45162,62.18089
138758,1387593,1638,-260,12076,-55,-176,-202,0.00774,-0.01738,1.0001,0.17405,0.05954,0.60229,-0.99548,-0.44325,1.00028,-1.10345,-0.51199,0.099714,0.10828,0.01961,0.01961,0.856302,-0.005822,-0.008104,0.516379,-1.05094,-0.45075,62.18689
138759,1387603,1646,-292,12190,-59,-173,-203,0.00823,-0.01934,1.00687,0.14351,0.08244,0.59466,-1.10045,-0.46818,1.00709,-1.10298,-0.51167,0.09971,0.108225,0.013134,0.013134,0.856275,-0.005821,-0.008098,0.516423,-1.05049,-0.45015,62.19283
138760,1387613,1728,-228,12074,-55,-162,-206,0.01326,-0.01541,0.99998,0.17405,0.16641,0.57176,-0.88316,-0.75969,1.00018,-1.09792,-0.51599,0.099301,0.10869,0.019702,0.019702,0.85625,-0.005763,-0.008109,0.516465,-1.04545,-0.45457,62.19849
138761,1387623,1640,-300,12118,-66,-167,-206,0.00786,-0.01983,1.00259,0.09008,0.12824,0.57176,-1.13317,-0.44914,1.00282,-1.09865,-0.51458,0.099362,0.108574,0.018263,0.018263,0.856224,-0.005776,-0.008102,0.516508,-1.04633,-0.45307,62.2042
138762,1387633,1694,-286,12094,-71,-164,-208,0.01117,-0.01897,1.00116,0.05191,0.15115,0.55649,-1.08566,-0.63938,1.00141,-1.09887,-0.51657,0.099337,0.108804,0.019313,0.019313,0.8562,-0.005768,-0.008119,0.516549,-1.04664,-0.45518,62.20975
138763,1387643,1660,-332,12104,-64,-172,-203,0.00909,-0.02179,1.00176,0.10534,0.09008,0.59466,-1.24633,-0.51967,1.00204,-1.1016,-0.51681,0.099602,0.108809,0.018903,0.018903,0.856172,-0.005789,-0.008135,0.516594,-1.04962,-0.45546,62.21569
138764,1387653,1602,-240,12082,-59,-171,-203,0.00553,-0.01615,1.00045,0.14351,0.09771,0.59466,-0.92489,-0.3166,1.0006,-1.0977,-0.513,0.099274,0.108437,0.019595,0.019595,0.856146,-0.005777,-0.008089,0.516638,-1.04573,-0.45159,62.22161
138765,1387663,1706,-280,12082,-60,-177,-210,0.01191,-0.0186,1.00045,0.13588,0.05191,0.54122,-1.06536,-0.682,1.0007,-1.09671,-0.51686,0.099215,0.108749,0.01955,0.01955,0.856122,-0.005752,-0.008115,0.516679,-1.04481,-0.45558,62.22701
138766,1387673,1700,-286,12080,-58,-176,-202,0.01154,-0.01897,1.00033,0.15115,0.05954,0.60229,-1.08656,-0.66099,1.00058,-1.09601,-0.52016,0.099197,0.109015,0.019558,0.019558,0.856095,-0.005731,-0.008138,0.516723,-1.04418,-0.45898,62.23303
138767,1387683,1662,-282,12052,-66,-173,-209,0.00921,-0.01873,0.99867,0.09008,0.08244,0.54885,-1.0743,-0.52835,0.99889,-1.09567,-0.52058,0.099157,0.10903,0.019368,0.019368,0.85607,-0.005727,-0.00814,0.516764,-1.04393,-0.45945,62.23851
138768,1387693,1618,-322,12096,-59,-164,-207,0.00651,-0.02118,1.00128,0.14351,0.15115,0.56412,-1.21184,-0.37248,1.00153,-1.09746,-0.51733,0.099369,0.108762,0.019149,0.019149,0.856044,-0.005756,-0.008125,0.516806,-1.04589,-0.4561,62.24414
138769,1387703,1630,-300,12078,-56,-175,-206,0.00725,-0.01983,1.00021,0.16641,0.06718,0.57176,-1.13587,-0.41506,1.00044,-1.09756,-0.51574,0.099441,0.108571,0.019539,0.019539,0.856019,-0.005764,-0.008114,0.516849,-1.04607,-0.4545,62.24987
138770,1387713,1686,-310,12126,-55,-172,-207,0.01068,-0.02044,1.00307,0.17405,0.09008,0.56412,-1.16766,-0.61012,1.00333,-1.09806,-0.51758,0.09956,0.108729,0.017638,0.017638,0.855993,-0.00576,-0.008133,0.516891,-1.04678,-0.45657,62.2555
138771,1387723,1698,-284,12082,-61,-167,-207,0.01142,-0.01885,1.00045,0.12824,0.12824,0.56412,-1.07941,-0.65389,1.00069,-1.09742,-0.52005,0.099526,0.108981,0.019484,0.019484,0.855968,-0.005743,-0.008149,0.516933,-1.04619,-0.45913,62.26113
138772,1387733,1686,-302,12070,-66,-164,-205,0.01068,-0.01995,0.99974,0.09008,0.15115,0.57939,-1.14343,-0.61215,0.99999,-1.09841,-0.52144,0.099611,0.109153,0.019558,0.019558,0.855942,-0.005745,-0.008165,0.516976,-1.04728,-0.46058,62.2669
138773,1387743,1716,-314,12098,-63,-161,-203,0.01252,-0.02069,1.0014,0.11298,0.17405,0.59466,-1.18363,-0.71642,1.00169,-1.0999,-0.5245,0.099765,0.109505,0.019005,0.019005,0.855915,-0.005742,-0.008197,0.51702,-1.04892,-0.46383,62.27285
138774,1387753,1664,-294,12052,-60,-157,-207,0.00933,-0.01946,0.99867,0.13588,0.20458,0.56412,-1.11652,-0.53538,0.9989,-1.09986,-0.52378,0.099796,0.109527,0.019304,0.019304,0.855889,-0.005745,-0.008192,0.517062,-1.04895,-0.46311,62.27845
138775,1387763,1732,-306,12116,-56,-162,-209,0.01351,-0.0202,1.00247,0.16641,0.16641,0.54885,-1.15433,-0.77176,1.00277,-1.1002,-0.52773,0.099891,0.109955,0.018156,0.018156,0.855865,-0.005728,-0.008227,0.517102,-1.04943,-0.46747,62.28392
138776,1387773,1652,-282,12030,-63,-165,-211,0.0086,-0.01873,0.99736,0.11298,0.14351,0.53359,-1.07571,-0.4938,0.99757,-1.09962,-0.52677,0.099848,0.109896,0.018463,0.018463,0.855841,-0.005728,-0.008218,0.517142,-1.04886,-0.46646,62.28924
138777,1387783,1642,-292,12126,-74,-171,-207,0.00798,-0.01934,1.00307,0.02901,0.09771,0.56412,-1.10462,-0.45594,1.00328,-1.1004,-0.52564,0.099855,0.109777,0.017662,0.017662,0.855815,-0.00574,-0.008212,0.517184,-1.04972,-0.46517,62.29487
138778,1387793,1698,-310,12062,-76,-176,-208,0.01142,-0.02044,0.99926,0.01374,0.05954,0.55649,-1.1721,-0.65465,0.99954,-1.10265,-0.52865,0.099986,0.110015,0.019508,0.019508,0.85579,-0.005743,-0.008246,0.517225,-1.05208,-0.46827,62.30045
138779,1387803,1670,-278,12068,-72,-174,-207,0.0097,-0.01848,0.99962,0.04427,0.07481,0.56412,-1.05922,-0.55598,0.99984,-1.10234,-0.52953,0.099905,0.110064,0.019526,0.019526,0.855765,-0.005737,-0.008252,0.517267,-1.05182,-0.46917,62.30607
138780,1387813,1638,-300,12210,-65,-171,-209,0.00774,-0.01983,1.00806,0.09771,0.09771,0.54885,-1.12703,-0.43973,1.00828,-1.10265,-0.5286,0.099932,0.109965,0.011667,0.011667,0.85574,-0.005748,-0.008242,0.517308,-1.0523,-0.46754,62.31156
138781,1387823,1614,-272,11940,-63,-178,-211,0.00627,-0.01811,0.99201,0.11298,0.04427,0.53359,-1.04609,-0.36181,0.9922,-1.10183,-0.5272,0.099866,0.10977,0.012306,0.012306,0.855716,-0.00575,-0.008218,0.517349,-1.05109,-0.46501,62.31688
138782,1387833,1738,-256,11508,-49,-172,-202,0.01387,-0.01713,0.96634,0.21985,0.09008,0.60229,-1.0157,-0.82247,0.9666,-1.10049,-0.52788,0.099853,0.109816,0.001656,0.001656,0.855689,-0.00572,-0.008225,0.517393,-1.04861,-0.46737,62.32288
138783,1387843,1720,-180,11164,-51,-176,-197,0.01277,-0.01247,0.9459,0.20458,0.05954,0.64046,-0.75533,-0.77341,0.94607,-1.09921,-0.52855,0.099831,0.109832,0.000681,0.000681,0.85566,-0.00569,-0.008216,0.517441,-1.04512,-0.46823,62.32926
138784,1387853,1696,-188,11010,-53,-180,-200,0.0113,-0.01296,0.93675,0.18931,0.02901,0.61756,-0.79272,-0.6909,0.93691,-1.09816,-0.52944,0.099816,0.10984,0.000511,0.000511,0.855633,-0.005666,-0.008207,0.517487,-1.04226,-0.46872,62.33543
138785,1387863,1804,-298,12348,-53,-185,-208,0.01792,-0.01971,1.01626,0.18931,-0.00916,0.55649,-1.11102,-1.0103,1.01661,-1.09734,-0.53333,0.099823,0.110095,0.005617,0.005617,0.855608,-0.005621,-0.008267,0.517528,-1.04149,-0.4772,62.341
138786,1387873,1574,-294,12248,-38,-166,-204,0.00381,-0.01946,1.01032,0.30382,0.13588,0.58702,-1.10365,-0.21607,1.01051,-1.09538,-0.52987,0.099831,0.109791,0.010103,0.010103,0.855581,-0.005635,-0.008213,0.517573,-1.03962,-0.47103,62.34685
138787,1387883,1636,-276,12158,-45,-149,-199,0.00762,-0.01836,1.00497,0.25038,0.26565,0.62519,-1.04659,-0.4341,1.00516,-1.09308,-0.52673,0.099756,0.109642,0.016794,0.016794,0.855553,-0.005633,-0.008177,0.517619,-1.0373,-0.46754,62.35307
138788,1387893,1644,-196,12210,-58,-138,-202,0.00811,-0.01345,1.00806,0.15115,0.34962,0.60229,-0.76454,-0.4607,1.00818,-1.08837,-0.52351,0.099358,0.109564,0.012804,0.012804,0.855527,-0.0056,-0.008119,0.517664,-1.03073,-0.46381,62.35898
138789,1387903,1644,-198,12254,-69,-127,-205,0.00811,-0.01357,1.01067,0.06718,0.43359,0.57939,-0.76951,-0.45951,1.0108,-1.08552,-0.51967,0.099057,0.109507,0.009942,0.009942,0.855501,-0.00558,-0.008062,0.517708,-1.02542,-0.45929,62.36465
138790,1387913,1684,-240,12124,-77,-145,-206,0.01056,-0.01615,1.00295,0.00611,0.29618,0.57176,-0.92258,-0.60323,1.00313,-1.08324,-0.51947,0.098754,0.109665,0.019555,0.019555,0.855476,-0.005566,-0.008051,0.51775,-1.02337,-0.45908,62.3703
138791,1387923,1694,-284,12058,-58,-156,-214,0.01117,-0.01885,0.99903,0.15115,0.21221,0.51069,-1.08095,-0.64075,0.99927,-1.08268,-0.52105,0.09875,0.109912,0.021269,0.021269,0.855453,-0.005556,-0.008061,0.517788,-1.02305,-0.4605,62.37538
138792,1387933,1638,-278,11992,-61,-149,-212,0.00774,-0.01848,0.9951,0.12824,0.26565,0.52595,-1.06403,-0.44546,0.99531,-1.08206,-0.51819,0.09872,0.109789,0.017517,0.017517,0.85543,-0.005567,-0.008036,0.517827,-1.02261,-0.45746,62.3806
138793,1387943,1578,-318,12050,-68,-147,-213,0.00406,-0.02094,0.99855,0.07481,0.28092,0.51832,-1.20109,-0.23269,0.99878,-1.0848,-0.51053,0.098956,0.109225,0.020981,0.020981,0.855406,-0.005621,-0.007994,0.517866,-1.02547,-0.45007,62.38575
138794,1387953,1636,-336,12076,-72,-153,-214,0.00762,-0.02204,1.0001,0.04427,0.23511,0.51069,-1.26246,-0.43618,1.00037,-1.08909,-0.50772,0.099311,0.109078,0.021181,0.021181,0.855383,-0.005665,-0.007994,0.517904,-1.0298,-0.44735,62.39085
138795,1387963,1710,-304,12050,-76,-165,-215,0.01216,-0.02008,0.99855,0.01374,0.14351,0.50305,-1.15183,-0.69736,0.99883,-1.09124,-0.51134,0.099433,0.109453,0.020846,0.020846,0.85536,-0.005667,-0.008031,0.517941,-1.03214,-0.45081,62.39587
138796,1387973,1662,-240,12092,-84,-161,-215,0.00921,-0.01615,1.00105,-0.04733,0.17405,0.50305,-0.92434,-0.52712,1.00122,-1.08921,-0.51103,0.099102,0.109486,0.020753,0.020753,0.855338,-0.005655,-0.008021,0.517978,-1.0305,-0.45051,62.40086
138797,1387983,1718,-266,12056,-73,-157,-218,0.01265,-0.01775,0.99891,0.03664,0.20458,0.48015,-1.01777,-0.72529,0.99914,-1.08834,-0.51456,0.09896,0.10991,0.020835,0.020835,0.855316,-0.005636,-0.008044,0.518013,-1.02992,-0.45387,62.40562
138798,1387993,1612,-262,11996,-65,-169,-222,0.00614,-0.0175,0.99534,0.09771,0.11298,0.44962,-1.00729,-0.35354,0.99551,-1.08693,-0.51172,0.098826,0.109644,0.017472,0.017472,0.855296,-0.005639,-0.008014,0.518047,-1.02853,-0.45069,62.41008
138799,1388003,1606,-268,12090,-63,-166,-222,0.00577,-0.01787,1.00093,0.11298,0.13588,0.44962,-1.02273,-0.33049,1.0011,-1.08547,-0.50772,0.098701,0.10929,0.020669,0.020669,0.855276,-0.005647,-0.00798,0.518081,-1.02732,-0.44685,62.41456
138800,1388013,1578,-306,12062,-67,-159,-216,0.00406,-0.0202,0.99926,0.08244,0.18931,0.49542,-1.15804,-0.23253,0.99948,-1.08714,-0.50121,0.098843,0.108749,0.020794,0.020794,0.855253,-0.005689,-0.007942,0.518118,-1.02915,-0.44058,62.41949
138801,1388023,1658,-294,12008,-70,-165,-224,0.00897,-0.01946,0.99605,0.05954,0.14351,0.43435,-1.11944,-0.51561,0.99629,-1.08811,-0.50113,0.098898,0.108775,0.018309,0.018309,0.855234,-0.005698,-0.007947,0.518151,-1.03037,-0.44055,62.42382
138802,1388033,1706,-280,12084,-74,-164,-223,0.01191,-0.0186,1.00057,0.02901,0.15115,0.44198,-1.06524,-0.68192,1.00081,-1.08833,-0.50445,0.098852,0.109129,0.020634,0.020634,0.855214,-0.005686,-0.007974,0.518183,-1.03081,-0.44378,62.42823
138803,1388043,1674,-248,12038,-70,-162,-224,0.00995,-0.01664,0.99784,0.05954,0.16641,0.43435,-0.95548,-0.57108,0.99803,-1.08606,-0.50522,0.098601,0.109256,0.019945,0.019945,0.855194,-0.005667,-0.00797,0.518215,-1.02875,-0.44458,62.43253
138804,1388053,1678,-310,12138,-80,-187,-221,0.01019,-0.02044,1.00378,-0.01679,-0.02443,0.45725,-1.16683,-0.58167,1.00404,-1.08863,-0.50789,0.098735,0.109383,0.017813,0.017813,0.855173,-0.005675,-0.008005,0.518249,-1.03167,-0.44744,62.43713
138805,1388063,1434,-168,10366,-84,-193,-216,-0.00478,-0.01173,0.89849,-0.04733,-0.07023,0.49542,-0.74825,0.30481,0.89858,-1.09002,-0.50952,0.098728,0.109367,0.000203,0.000203,0.855151,-0.005678,-0.008,0.518286,-1.03168,-0.44672,62.44209
138806,1388073,1578,-268,11462,-91,-205,-223,0.00406,-0.01787,0.96361,-0.10076,-0.16183,0.44198,-1.06233,-0.24114,0.96379,-1.09197,-0.51182,0.098724,0.109328,0.001518,0.001518,0.855131,-0.005689,-0.008005,0.518319,-1.03299,-0.44648,62.44654
138807,1388083,1624,-262,11908,-48,-187,-221,0.00688,-0.0175,0.99011,0.22748,-0.02443,0.45725,-1.01261,-0.39801,0.99029,-1.08982,-0.51188,0.098642,0.109207,0.011099,0.011099,0.85511,-0.005672,-0.007988,0.518354,-1.03037,-0.44575,62.45112
138808,1388093,1704,-292,12100,-85,-191,-216,0.01179,-0.01934,1.00152,-0.05496,-0.05496,0.49542,-1.10632,-0.67424,1.00178,-1.09167,-0.51687,0.098672,0.109524,0.020821,0.020821,0.855088,-0.005665,-0.008035,0.51839,-1.03248,-0.45077,62.45609
138809,1388103,1710,-272,12052,-61,-189,-212,0.01216,-0.01811,0.99867,0.12824,-0.03969,0.52595,-1.03912,-0.6973,0.99891,-1.09027,-0.52215,0.098567,0.109882,0.021139,0.021139,0.855064,-0.005633,-0.008069,0.518429,-1.03137,-0.456,62.46135
138810,1388113,1670,-256,12262,-80,-182,-205,0.0097,-0.01713,1.01115,-0.01679,0.01374,0.57939,-0.9707,-0.54966,1.01134,-1.09028,-0.52336,0.098459,0.109906,0.009433,0.009433,0.855038,-0.00562,-0.008076,0.518472,-1.03051,-0.45741,62.46714
138811,1388123,1596,-284,12020,-60,-188,-204,0.00516,-0.01885,0.99677,0.13588,-0.03206,0.58702,-1.0834,-0.2966,0.99696,-1.08978,-0.52029,0.098447,0.10948,0.019683,0.019683,0.855011,-0.005631,-0.008053,0.518516,-1.03024,-0.45444,62.47301
138812,1388133,1636,-304,12046,-57,-191,-211,0.00762,-0.02008,0.99831,0.15878,-0.05496,0.53359,-1.1521,-0.43698,0.99854,-1.0905,-0.52015,0.098572,0.109312,0.020974,0.020974,0.854987,-0.005636,-0.008058,0.518556,-1.03113,-0.45455,62.47839
138813,1388143,1716,-300,12232,-60,-172,-210,0.01252,-0.01983,1.00936,0.13588,0.09008,0.54122,-1.12557,-0.71079,1.00964,-1.09052,-0.52247,0.09861,0.109513,0.011173,0.011173,0.854962,-0.005622,-0.008088,0.518596,-1.03154,-0.45824,62.48379
138814,1388153,1682,-226,12066,-50,-160,-212,0.01044,-0.01529,0.9995,0.21221,0.18168,0.52595,-0.87655,-0.59828,0.99967,-1.08482,-0.52339,0.098178,0.109668,0.021431,0.021431,0.854939,-0.005579,-0.008071,0.518635,-1.02636,-0.45913,62.48899
138815,1388163,1658,-278,12146,-56,-163,-209,0.00897,-0.01848,1.00425,0.16641,0.15878,0.54885,-1.05433,-0.51141,1.00446,-1.08361,-0.52269,0.098127,0.109649,0.017875,0.017875,0.854915,-0.005574,-0.008062,0.518676,-1.02529,-0.45847,62.49446
138816,1388173,1652,-288,12032,-52,-155,-208,0.0086,-0.0191,0.99748,0.19695,0.21985,0.55649,-1.09671,-0.49373,0.9977,-1.0829,-0.52102,0.098155,0.109596,0.020296,0.020296,0.854889,-0.005577,-0.008048,0.518718,-1.02479,-0.45687,62.49998
138817,1388183,1674,-298,12018,-65,-172,-211,0.00995,-0.01971,0.99665,0.09771,0.09008,0.53359,-1.13288,-0.57173,0.99689,-1.08388,-0.5222,0.098246,0.109688,0.019444,0.019444,0.854865,-0.00558,-0.008063,0.518757,-1.02599,-0.45815,62.50533
138818,1388193,1708,-254,12080,-71,-167,-209,0.01203,-0.01701,1.00033,0.05191,0.12824,0.54885,-0.97417,-0.68913,1.00055,-1.08201,-0.52555,0.098026,0.110023,0.021172,0.021172,0.854841,-0.005554,-0.00808,0.518798,-1.02448,-0.46139,62.51079
138819,1388203,1678,-272,12098,-69,-166,-211,0.01019,-0.01811,1.0014,0.06718,0.13588,0.53359,-1.03628,-0.58308,1.00162,-1.08137,-0.52649,0.097936,0.110136,0.020624,0.020624,0.854817,-0.005546,-0.008086,0.518838,-1.02409,-0.46236,62.5161
138820,1388213,1678,-326,12096,-59,-166,-212,0.01019,-0.02143,1.00128,0.14351,0.13588,0.52595,-1.22588,-0.58311,1.00156,-1.0839,-0.5274,0.098218,0.110247,0.02059,0.02059,0.854793,-0.005561,-0.008105,0.518877,-1.02672,-0.46332,62.52137
138821,1388223,1636,-270,12034,-52,-161,-213,0.00762,-0.01799,0.9976,0.19695,0.17405,0.51832,-1.03319,-0.43731,0.99779,-1.08192,-0.52497,0.098124,0.110077,0.020058,0.020058,0.854769,-0.005558,-0.00808,0.518915,-1.02492,-0.46097,62.52652
138822,1388233,1614,-322,12112,-62,-143,-214,0.00627,-0.02118,1.00223,0.12061,0.31145,0.51069,-1.21069,-0.3581,1.00248,-1.08424,-0.51969,0.098365,0.109769,0.019774,0.019774,0.854746,-0.0056,-0.008053,0.518954,-1.02745,-0.45572,62.5316
138823,1388243,1694,-260,12054,-62,-144,-210,0.01117,-0.01738,0.99879,0.12061,0.30382,0.54122,-0.99678,-0.64092,0.999,-1.08221,-0.52031,0.098194,0.11001,0.020712,0.020712,0.854722,-0.005584,-0.008049,0.518993,-1.02567,-0.45628,62.53695
138824,1388253,1670,-280,12148,-69,-156,-209,0.0097,-0.0186,1.00437,0.06718,0.21221,0.54885,-1.0612,-0.55335,1.00459,-1.08215,-0.51987,0.098159,0.110066,0.01728,0.01728,0.854697,-0.005585,-0.008047,0.519034,-1.02574,-0.45596,62.5424
138825,1388263,1674,-282,12082,-72,-165,-212,0.00995,-0.01873,1.00045,0.04427,0.14351,0.52595,-1.07239,-0.56957,1.00068,-1.08248,-0.52058,0.098139,0.110164,0.02076,0.02076,0.854674,-0.005586,-0.008055,0.519073,-1.02627,-0.45671,62.54764
138826,1388273,1680,-276,12088,-69,-173,-212,0.01032,-0.01836,1.00081,0.06718,0.08244,0.52595,-1.05094,-0.59044,1.00103,-1.08213,-0.52228,0.098077,0.110299,0.020573,0.020573,0.85465,-0.005576,-0.008068,0.519112,-1.02613,-0.45846,62.55289
138827,1388283,1698,-268,12092,-65,-176,-209,0.01142,-0.01787,1.00105,0.09771,0.05954,0.54885,-1.02261,-0.65351,1.00127,-1.08092,-0.52546,0.097962,0.110552,0.020403,0.020403,0.854625,-0.005554,-0.008088,0.519153,-1.02513,-0.46166,62.55836
138828,1388293,1632,-282,12098,-65,-174,-205,0.00737,-0.01873,1.0014,0.09771,0.07481,0.57939,-1.07137,-0.4216,1.0016,-1.08073,-0.52372,0.097944,0.110353,0.020161,0.020161,0.854599,-0.005561,-0.008076,0.519196,-1.02512,-0.46001,62.56414
138829,1388303,1646,-268,12076,-62,-165,-209,0.00823,-0.01787,1.0001,0.12061,0.14351,0.54885,-1.02359,-0.47137,1.00029,-1.07933,-0.52231,0.097833,0.110252,0.020602,0.020602,0.854574,-0.005557,-0.008061,0.519237,-1.02393,-0.4587,62.56961
138830,1388313,1620,-272,12042,-66,-165,-201,0.00663,-0.01811,0.99807,0.09008,0.14351,0.60992,-1.03974,-0.38074,0.99826,-1.07862,-0.51916,0.097758,0.109985,0.019969,0.019969,0.854547,-0.005567,-0.008036,0.519283,-1.02339,-0.45561,62.57569
138831,1388323,1652,-264,12010,-67,-165,-213,0.0086,-0.01762,0.99617,0.08244,0.14351,0.51832,-1.01351,-0.49439,0.99637,-1.07759,-0.51838,0.097646,0.109943,0.018166,0.018166,0.854523,-0.005563,-0.008026,0.519321,-1.02241,-0.45484,62.58083
138832,1388333,1648,-266,12072,-65,-165,-206,0.00835,-0.01775,0.99986,0.09771,0.14351,0.57176,-1.0168,-0.47851,1.00005,-1.07634,-0.51723,0.097528,0.109866,0.020507,0.020507,0.854498,-0.005559,-0.008013,0.519364,-1.02137,-0.45378,62.58653
138833,1388343,1680,-302,12036,-67,-168,-211,0.01032,-0.01995,0.99772,0.08244,0.12061,0.53359,-1.14575,-0.59225,0.99797,-1.07785,-0.5186,0.097657,0.110006,0.01966,0.01966,0.854473,-0.005565,-0.008032,0.519403,-1.02306,-0.45524,62.59187
138834,1388353,1672,-280,12088,-68,-176,-209,0.00982,-0.0186,1.00081,0.07481,0.05954,0.54885,-1.06498,-0.56234,1.00103,-1.07781,-0.51998,0.097632,0.110088,0.020207,0.020207,0.854449,-0.005559,-0.008044,0.519444,-1.0232,-0.45668,62.59735
138835,1388363,1674,-276,12032,-69,-186,-212,0.00995,-0.01836,0.99748,0.06718,-0.01679,0.52595,-1.05445,-0.57127,0.9977,-1.07766,-0.52222,0.097589,0.11018,0.019365,0.019365,0.854425,-0.005548,-0.008062,0.519483,-1.02319,-0.45904,62.60263
138836,1388373,1652,-326,12084,-63,-200,-205,0.0086,-0.02143,1.00057,0.11298,-0.12366,0.57939,-1.22675,-0.49219,1.00084,-1.08052,-0.5239,0.097874,0.110118,0.020202,0.020202,0.854398,-0.005562,-0.008089,0.519526,-1.02618,-0.46083,62.60846
138837,1388383,1682,-312,12022,-67,-198,-210,0.01044,-0.02057,0.99689,0.08244,-0.1084,0.54122,-1.18195,-0.59979,0.99715,-1.08258,-0.52747,0.098054,0.110249,0.018802,0.018802,0.854373,-0.005562,-0.008127,0.519567,-1.02848,-0.46458,62.61391
138838,1388393,1676,-278,12052,-63,-189,-204,0.01007,-0.01848,0.99867,0.11298,-0.03969,0.58702,-1.06023,-0.57763,0.99889,-1.08199,-0.52995,0.098012,0.110342,0.020037,0.020037,0.854347,-0.005546,-0.008145,0.51961,-1.02804,-0.46713,62.6198
138839,1388403,1650,-308,12090,-56,-181,-203,0.00847,-0.02032,1.00093,0.16641,0.02137,0.59466,-1.16314,-0.485,1.00117,-1.08294,-0.52992,0.098166,0.110255,0.01997,0.01997,0.85432,-0.005554,-0.00815,0.519655,-1.02912,-0.46716,62.62577
138840,1388413,1698,-244,12092,-55,-165,-210,0.01142,-0.0164,1.00105,0.17405,0.14351,0.54122,-0.93838,-0.65353,1.00125,-1.07932,-0.53206,0.097896,0.110488,0.019897,0.019897,0.854295,-0.005517,-0.008151,0.519695,-1.02561,-0.46935,62.63113
138841,1388423,1720,-308,12068,-59,-163,-207,0.01277,-0.02032,0.99962,0.14351,0.15878,0.56412,-1.16466,-0.73177,0.99991,-1.08059,-0.53561,0.098059,0.11087,0.02016,0.02016,0.85427,-0.005511,-0.008184,0.519736,-1.027,-0.47291,62.63678
138842,1388433,1642,-264,12048,-55,-152,-203,0.00798,-0.01762,0.99843,0.17405,0.24275,0.59466,-1.01121,-0.45807,0.99862,-1.07847,-0.53279,0.097931,0.110728,0.019751,0.019751,0.854243,-0.005509,-0.008154,0.519781,-1.025,-0.47008,62.64268
138843,1388443,1662,-304,12088,-59,-154,-204,0.00921,-0.02008,1.00081,0.14351,0.22748,0.58702,-1.14923,-0.52721,1.00105,-1.07943,-0.53153,0.098065,0.110719,0.019873,0.019873,0.854217,-0.005522,-0.00815,0.519824,-1.02609,-0.46884,62.64853
138844,1388453,1662,-234,12112,-55,-154,-205,0.00921,-0.01578,1.00223,0.17405,0.22748,0.57939,-0.90221,-0.5265,1.0024,-1.07532,-0.53029,0.097748,0.110712,0.018982,0.018982,0.854191,-0.005496,-0.008122,0.519867,-1.02193,-0.46761,62.65425
138845,1388463,1706,-322,12006,-58,-172,-207,0.01191,-0.02118,0.99594,0.15115,0.09008,0.56412,-1.21835,-0.68505,0.99623,-1.07732,-0.53321,0.097987,0.11097,0.017591,0.017591,0.854165,-0.005499,-0.008158,0.519909,-1.02434,-0.4709,62.65992
138846,1388473,1692,-290,12034,-61,-167,-204,0.01105,-0.01922,0.9976,0.12824,0.12824,0.58702,-1.10363,-0.63461,0.99785,-1.07752,-0.53499,0.098035,0.111154,0.019177,0.019177,0.854138,-0.005492,-0.008174,0.519953,-1.02469,-0.47277,62.66577
138847,1388483,1650,-306,12036,-60,-178,-205,0.00847,-0.0202,0.99772,0.13588,0.04427,0.57939,-1.15983,-0.48656,0.99796,-1.07874,-0.53471,0.098186,0.111064,0.019244,0.019244,0.854112,-0.005504,-0.008178,0.519996,-1.02607,-0.4725,62.67159
138848,1388493,1688,-314,12040,-57,-178,-200,0.01081,-0.02069,0.99796,0.15878,0.04427,0.61756,-1.18772,-0.62028,0.99823,-1.08026,-0.53703,0.098387,0.11122,0.019412,0.019412,0.854084,-0.005505,-0.008204,0.520042,-1.02775,-0.47489,62.67777
138849,1388503,1658,-286,12060,-55,-177,-203,0.00897,-0.01897,0.99914,0.17405,0.05191,0.59466,-1.08785,-0.51402,0.99936,-1.07967,-0.53715,0.098403,0.111176,0.019906,0.019906,0.854057,-0.0055,-0.008203,0.520086,-1.02726,-0.47505,62.68372
138850,1388513,1676,-322,12004,-55,-182,-210,0.01007,-0.02118,0.99582,0.17405,0.01374,0.54122,-1.21849,-0.57925,0.99609,-1.08133,-0.53884,0.098632,0.111243,0.017355,0.017355,0.854032,-0.005507,-0.008226,0.520126,-1.02933,-0.47687,62.68916
138851,1388523,1668,-304,11964,-58,-178,-201,0.00958,-0.02008,0.99344,0.15115,0.04427,0.60992,-1.15775,-0.55234,0.99369,-1.08191,-0.53969,0.098737,0.111261,0.014363,0.014363,0.854004,-0.00551,-0.008238,0.520172,-1.03034,-0.47777,62.69527
138852,1388533,1636,-322,12014,-70,-165,-199,0.00762,-0.02118,0.99641,0.05954,0.14351,0.62519,-1.21777,-0.4378,0.99667,-1.08475,-0.53754,0.098968,0.111087,0.018075,0.018075,0.853976,-0.005544,-0.008235,0.520218,-1.03351,-0.47543,62.70153
138853,1388543,1648,-286,12088,-68,-155,-200,0.00835,-0.01897,1.00081,0.07481,0.21985,0.61756,-1.08605,-0.47804,1.00102,-1.08502,-0.53529,0.09897,0.110978,0.019844,0.019844,0.853948,-0.005556,-0.00822,0.520264,-1.03386,-0.47317,62.70767
138854,1388553,1654,-308,12010,-62,-165,-206,0.00872,-0.02032,0.99617,0.12061,0.14351,0.57176,-1.16868,-0.50143,0.99642,-1.08629,-0.53437,0.099111,0.110921,0.01778,0.01778,0.853922,-0.005571,-0.00822,0.520307,-1.03536,-0.47219,62.71339
138855,1388563,1656,-314,12084,-57,-165,-209,0.00884,-0.02069,1.00057,0.15878,0.14351,0.54885,-1.18462,-0.50625,1.00082,-1.08766,-0.53349,0.099298,0.110869,0.01989,0.01989,0.853897,-0.005585,-0.008221,0.520348,-1.0368,-0.47134,62.71888
138856,1388573,1636,-328,12056,-64,-167,-206,0.00762,-0.02155,0.99891,0.10534,0.12824,0.57176,-1.23582,-0.4367,0.99917,-1.09055,-0.5314,0.099576,0.110687,0.019854,0.019854,0.853871,-0.005617,-0.008219,0.52039,-1.03977,-0.46926,62.7246
138857,1388583,1658,-292,12076,-64,-165,-206,0.00897,-0.01934,1.0001,0.10534,0.14351,0.57176,-1.1079,-0.51353,1.00032,-1.09083,-0.53072,0.099609,0.110654,0.019937,0.019937,0.853845,-0.005622,-0.008216,0.520433,-1.04013,-0.46861,62.7303
138858,1388593,1692,-258,12070,-63,-173,-210,0.01105,-0.01726,0.99974,0.11298,0.08244,0.54122,-0.98881,-0.63328,0.99995,-1.08867,-0.53304,0.099417,0.110847,0.019923,0.019923,0.85382,-0.005595,-0.008224,0.520473,-1.03802,-0.47098,62.73568
138859,1388603,1716,-324,12094,-65,-165,-214,0.01252,-0.0213,1.00116,0.09771,0.14351,0.51069,-1.219,-0.71658,1.00147,-1.09123,-0.53629,0.099657,0.111186,0.019479,0.019479,0.853797,-0.005599,-0.008262,0.520511,-1.04069,-0.47435,62.7408
138860,1388613,1668,-302,12050,-57,-169,-204,0.00958,-0.01995,0.99855,0.15878,0.11298,0.58702,-1.14479,-0.54952,0.9988,-1.0917,-0.53654,0.099758,0.111211,0.01959,0.01959,0.85377,-0.005602,-0.008267,0.520554,-1.04123,-0.47462,62.74667
138861,1388623,1682,-306,12034,-55,-167,-204,0.01044,-0.0202,0.9976,0.17405,0.12824,0.58702,-1.15997,-0.59937,0.99786,-1.09226,-0.53756,0.099882,0.111324,0.01899,0.01899,0.853744,-0.005601,-0.008278,0.520598,-1.04191,-0.47571,62.75252
138862,1388633,1680,-256,12040,-54,-162,-207,0.01032,-0.01713,0.99796,0.18168,0.16641,0.56412,-0.98353,-0.59214,0.99816,-1.08937,-0.53807,0.099686,0.111424,0.019191,0.019191,0.853718,-0.005576,-0.008269,0.52064,-1.03897,-0.47627,62.75812
138863,1388643,1696,-292,12026,-49,-159,-202,0.0113,-0.01934,0.99712,0.21985,0.18931,0.60229,-1.1112,-0.64901,0.99738,-1.0886,-0.53936,0.099726,0.11162,0.018561,0.018561,0.853691,-0.005564,-0.008277,0.520684,-1.03826,-0.4777,62.76414
138864,1388653,1630,-302,12068,-64,-173,-198,0.00725,-0.01995,0.99962,0.10534,0.08244,0.63282,-1.14357,-0.41531,0.99985,-1.08963,-0.53719,0.099829,0.111387,0.019806,0.019806,0.853662,-0.005582,-0.008266,0.520732,-1.03936,-0.47551,62.77046
138865,1388663,1706,-308,12078,-58,-171,-202,0.01191,-0.02032,1.00021,0.15115,0.09771,0.60229,-1.16396,-0.68214,1.00049,-1.0906,-0.54019,0.099969,0.111658,0.019736,0.019736,0.853635,-0.005575,-0.008293,0.520776,-1.04039,-0.47855,62.77649
138866,1388673,1664,-290,12030,-62,-162,-203,0.00933,-0.01922,0.99736,0.12061,0.16641,0.59466,-1.10389,-0.53608,0.99759,-1.09064,-0.53957,0.099993,0.111651,0.018693,0.018693,0.853608,-0.005579,-0.00829,0.52082,-1.0405,-0.47793,62.78241
138867,1388683,1656,-300,12050,-59,-162,-200,0.00884,-0.01983,0.99855,0.14351,0.16641,0.61756,-1.13776,-0.50728,0.99879,-1.09113,-0.53841,0.10008,0.111593,0.01947,0.01947,0.85358,-0.005588,-0.008284,0.520866,-1.04106,-0.47674,62.78856
138868,1388693,1654,-266,12098,-60,-151,-206,0.00872,-0.01775,1.0014,0.13588,0.25038,0.57176,-1.01523,-0.49883,1.0016,-1.08932,-0.53628,0.099943,0.111523,0.019249,0.019249,0.853554,-0.005583,-0.008259,0.520909,-1.03923,-0.47457,62.79424
138869,1388703,1688,-244,12072,-61,-153,-202,0.01081,-0.0164,0.99986,0.12824,0.23511,0.60229,-0.93949,-0.61915,1.00005,-1.08609,-0.53671,0.099664,0.11168,0.019715,0.019715,0.853527,-0.005557,-0.008248,0.520953,-1.036,-0.475,62.80019
138870,1388713,1702,-306,12002,-62,-160,-202,0.01167,-0.0202,0.9957,0.12061,0.18168,0.60229,-1.16219,-0.67111,0.99597,-1.08718,-0.5383,0.099786,0.111897,0.016988,0.016988,0.8535,-0.005558,-0.008269,0.520998,-1.03733,-0.47694,62.80621
138871,1388723,1612,-280,12016,-58,-163,-206,0.00614,-0.0186,0.99653,0.15115,0.15878,0.57176,-1.06955,-0.35311,0.99672,-1.08636,-0.53454,0.099758,0.111585,0.017841,0.017841,0.853474,-0.00557,-0.008235,0.521041,-1.0365,-0.47279,62.8119
138872,1388733,1644,-326,12060,-63,-154,-211,0.00811,-0.02143,0.99914,0.11298,0.22748,0.53359,-1.2285,-0.46475,0.99941,-1.08902,-0.53203,0.100022,0.111458,0.019663,0.019663,0.85345,-0.005602,-0.008229,0.52108,-1.03926,-0.47026,62.81722
138873,1388743,1674,-302,12074,-64,-161,-214,0.00995,-0.01995,0.99998,0.10534,0.17405,0.51069,-1.14316,-0.56983,1.00022,-1.09004,-0.53216,0.100123,0.111529,0.019697,0.019697,0.853426,-0.005608,-0.008235,0.521118,-1.04032,-0.47042,62.82231
138874,1388753,1692,-294,12118,-63,-169,-214,0.01105,-0.01946,1.00259,0.11298,0.11298,0.51069,-1.11215,-0.63145,1.00284,-1.09032,-0.53396,0.100162,0.111701,0.018241,0.018241,0.853403,-0.005602,-0.008251,0.521156,-1.04066,-0.47239,62.82742
138875,1388763,1662,-288,12090,-68,-162,-218,0.00921,-0.0191,1.00093,0.07481,0.16641,0.48015,-1.09294,-0.52715,1.00115,-1.09062,-0.53329,0.100166,0.111689,0.019435,0.019435,0.853381,-0.005607,-0.008248,0.521192,-1.04099,-0.47174,62.8322
138876,1388773,1650,-280,12048,-67,-155,-210,0.00847,-0.0186,0.99843,0.08244,0.21985,0.54122,-1.06752,-0.48623,0.99864,-1.09034,-0.53132,0.100124,0.111605,0.019319,0.019319,0.853357,-0.005614,-0.008232,0.521232,-1.04074,-0.46973,62.83758
138877,1388783,1684,-270,12078,-71,-164,-212,0.01056,-0.01799,1.00021,0.05191,0.15115,0.52595,-1.03049,-0.60485,1.00043,-1.08964,-0.53237,0.100012,0.111742,0.019617,0.019617,0.853333,-0.005603,-0.008238,0.521271,-1.04006,-0.47082,62.8428
138878,1388793,1640,-270,11982,-64,-171,-215,0.00786,-0.01799,0.99451,0.10534,0.09771,0.50305,-1.0364,-0.4528,0.9947,-1.08877,-0.53129,0.099934,0.111626,0.015397,0.015397,0.853311,-0.005601,-0.008222,0.521308,-1.03898,-0.46941,62.84782
138879,1388803,1724,-312,12080,-70,-178,-215,0.01302,-0.02057,1.00033,0.05954,0.04427,0.50305,-1.17787,-0.7453,1.00063,-1.09091,-0.53614,0.100099,0.112022,0.019616,0.019616,0.853288,-0.005595,-0.00827,0.521345,-1.0412,-0.47439,62.85286
138880,1388813,1666,-242,12030,-72,-174,-217,0.00946,-0.01627,0.99736,0.04427,0.07481,0.48779,-0.9348,-0.54316,0.99754,-1.08856,-0.53664,0.099823,0.112034,0.018568,0.018568,0.853266,-0.005573,-0.008263,0.521381,-1.03868,-0.47492,62.85771
138881,1388823,1678,-316,12114,-72,-161,-208,0.01019,-0.02081,1.00235,0.04427,0.17405,0.55649,-1.18952,-0.58249,1.00262,-1.09097,-0.53688,0.099998,0.112115,0.018427,0.018427,0.85324,-0.005591,-0.008277,0.521423,-1.04128,-0.47521,62.86327
138882,1388833,1640,-284,12012,-61,-174,-208,0.00786,-0.01885,0.99629,0.12824,0.07481,0.55649,-1.08391,-0.45199,0.9965,-1.09057,-0.53575,0.099987,0.111973,0.017562,0.017562,0.853215,-0.005593,-0.008266,0.521464,-1.04089,-0.47391,62.86882
138883,1388843,1632,-258,12022,-68,-173,-216,0.00737,-0.01726,0.99689,0.07481,0.08244,0.49542,-0.99163,-0.42352,0.99706,-1.08902,-0.534,0.099817,0.11178,0.018152,0.018152,0.853193,-0.005589,-0.008244,0.521501,-1.0392,-0.47199,62.87376
138884,1388853,1652,-324,12044,-66,-173,-213,0.0086,-0.0213,0.99819,0.09008,0.08244,0.51832,-1.22263,-0.49336,0.99846,-1.09168,-0.53351,0.10006,0.111705,0.019245,0.019245,0.853169,-0.005612,-0.008253,0.52154,-1.04201,-0.4715,62.87896
138885,1388863,1646,-262,12072,-59,-169,-217,0.00823,-0.0175,0.99986,0.14351,0.11298,0.48779,-1.00274,-0.47148,1.00004,-1.08951,-0.53228,0.099895,0.11159,0.019678,0.019678,0.853147,-0.005601,-0.008235,0.521576,-1.03983,-0.47028,62.8838
138886,1388873,1700,-284,12096,-64,-170,-218,0.01154,-0.01885,1.00128,0.10534,0.10534,0.48015,-1.07851,-0.66037,1.00153,-1.08924,-0.5348,0.099875,0.111823,0.019216,0.019216,0.853125,-0.005587,-0.008253,0.521612,-1.03958,-0.47293,62.88859
138887,1388883,1630,-302,12060,-63,-168,-211,0.00725,-0.01995,0.99914,0.11298,0.12061,0.53359,-1.14411,-0.41551,0.99937,-1.09019,-0.53238,0.099977,0.111602,0.019565,0.019565,0.853101,-0.005605,-0.00824,0.521651,-1.04059,-0.47048,62.89392
138888,1388893,1682,-272,12088,-62,-169,-212,0.01044,-0.01811,1.00081,0.12061,0.11298,0.52595,-1.0369,-0.59747,1.00103,-1.08895,-0.53363,0.09988,0.111722,0.019421,0.019421,0.853077,-0.005589,-0.008244,0.52169,-1.03935,-0.4718,62.89916
138889,1388903,1628,-294,12038,-62,-152,-214,0.00712,-0.01946,0.99784,0.12061,0.24275,0.51069,-1.11745,-0.40901,0.99805,-1.08929,-0.52999,0.099931,0.111501,0.018901,0.018901,0.853054,-0.005609,-0.008218,0.521728,-1.03974,-0.46802,62.90424
138890,1388913,1656,-278,12046,-64,-142,-210,0.00884,-0.01848,0.99831,0.10534,0.31908,0.54122,-1.06061,-0.50741,0.99852,-1.08868,-0.52752,0.099879,0.111464,0.019187,0.019187,0.853029,-0.005616,-0.008197,0.521769,-1.03915,-0.46552,62.9096
138891,1388923,1662,-302,12096,-67,-150,-218,0.00921,-0.01995,1.00128,0.08244,0.25802,0.48015,-1.14167,-0.52696,1.00152,-1.08987,-0.52607,0.099975,0.111465,0.019149,0.019149,0.853008,-0.005631,-0.008193,0.521804,-1.04041,-0.46408,62.91437
138892,1388933,1664,-292,12014,-63,-161,-218,0.00933,-0.01934,0.99641,0.11298,0.17405,0.48015,-1.11199,-0.53659,0.99664,-1.09013,-0.52564,0.100012,0.111484,0.017626,0.017626,0.852986,-0.005635,-0.008191,0.52184,-1.04073,-0.46369,62.91914
138893,1388943,1670,-324,12006,-67,-177,-219,0.0097,-0.0213,0.99594,0.08244,0.05191,0.47252,-1.2254,-0.558,0.99621,-1.09263,-0.52678,0.100232,0.111536,0.017174,0.017174,0.852964,-0.00565,-0.008214,0.521875,-1.04359,-0.46494,62.92389
138894,1388953,1640,-294,12044,-70,-183,-217,0.00786,-0.01946,0.99819,0.05954,0.00611,0.48779,-1.11705,-0.45112,0.99841,-1.09349,-0.52637,0.100275,0.111397,0.019147,0.019147,0.852942,-0.005659,-0.008215,0.521911,-1.0445,-0.46452,62.92878
138895,1388963,1662,-288,12094,-75,-176,-217,0.00921,-0.0191,1.00116,0.02137,0.05954,0.48779,-1.09268,-0.52703,1.00139,-1.09425,-0.52689,0.100272,0.111397,0.019243,0.019243,0.852919,-0.005662,-0.008223,0.521947,-1.04528,-0.46508,62.93365
138896,1388973,1662,-262,12046,-78,-178,-221,0.00921,-0.0175,0.99831,-0.00153,0.04427,0.45725,-1.0043,-0.52855,0.99851,-1.09353,-0.52758,0.100107,0.111399,0.019175,0.019175,0.852899,-0.005652,-0.008225,0.521981,-1.04452,-0.46582,62.9382
138897,1388983,1666,-258,12030,-72,-166,-219,0.00946,-0.01726,0.99736,0.04427,0.13588,0.47252,-0.99116,-0.54315,0.99756,-1.09218,-0.52763,0.099927,0.111426,0.018498,0.018498,0.852877,-0.005641,-0.00822,0.522016,-1.04305,-0.46591,62.94289
138898,1388993,1656,-266,12068,-68,-180,-219,0.00884,-0.01775,0.99962,0.07481,0.02901,0.47252,-1.01704,-0.50676,0.99982,-1.09096,-0.52803,0.099787,0.111386,0.019576,0.019576,0.852856,-0.005629,-0.008218,0.522051,-1.04182,-0.46635,62.94761
138899,1389003,1586,-252,12000,-72,-174,-216,0.00455,-0.01689,0.99558,0.04427,0.07481,0.49542,-0.97176,-0.26165,0.99573,-1.08952,-0.52397,0.099599,0.110967,0.0166,0.0166,0.852834,-0.005638,-0.008174,0.522088,-1.04004,-0.4615,62.95254
138900,1389013,1684,-300,12060,-66,-168,-219,0.01056,-0.01983,0.99914,0.09008,0.12061,0.47252,-1.13708,-0.60548,0.9994,-1.09055,-0.52546,0.099686,0.111118,0.019532,0.019532,0.852812,-0.005638,-0.00819,0.522123,-1.04112,-0.46308,62.95726
138901,1389023,1652,-256,12096,-69,-162,-221,0.0086,-0.01713,1.00128,0.06718,0.16641,0.45725,-0.98026,-0.49188,1.00147,-1.08875,-0.52428,0.099485,0.111058,0.019178,0.019178,0.852791,-0.005629,-0.008174,0.522157,-1.03927,-0.46191,62.96178
138902,1389033,1674,-358,12036,-71,-172,-224,0.00995,-0.02339,0.99772,0.05191,0.09008,0.43435,-1.34292,-0.57107,0.99804,-1.09401,-0.52537,0.099939,0.111141,0.018862,0.018862,0.852771,-0.005665,-0.008208,0.522189,-1.04484,-0.46311,62.96618
138903,1389043,1642,-268,12008,-70,-174,-221,0.00798,-0.01787,0.99605,0.05954,0.07481,0.45725,-1.02774,-0.45916,0.99625,-1.09327,-0.52458,0.09983,0.111033,0.017191,0.017191,0.852751,-0.005662,-0.008197,0.522223,-1.04394,-0.4622,62.97073
138904,1389053,1650,-262,12064,-72,-188,-227,0.00847,-0.0175,0.99938,0.04427,-0.03206,0.41145,-1.00322,-0.48577,0.99957,-1.09205,-0.52523,0.099662,0.110958,0.019557,0.019557,0.852732,-0.00565,-0.008197,0.522254,-1.04272,-0.46291,62.97484
138905,1389063,1644,-262,12092,-78,-175,-223,0.00811,-0.0175,1.00105,-0.00153,0.06718,0.44198,-1.00155,-0.4639,1.00123,-1.0913,-0.52447,0.099495,0.110845,0.019286,0.019286,0.852712,-0.005647,-0.008189,0.522287,-1.04195,-0.46218,62.97924
138906,1389073,1642,-284,12042,-79,-180,-220,0.00798,-0.01885,0.99807,-0.00916,0.02901,0.46489,-1.08198,-0.45822,0.99828,-1.09219,-0.52402,0.099476,0.110724,0.019011,0.019011,0.852691,-0.005655,-0.00819,0.522322,-1.04287,-0.46173,62.98389
138907,1389083,1688,-310,12100,-76,-186,-221,0.01081,-0.02044,1.00152,0.01374,-0.01679,0.45725,-1.16946,-0.61808,1.00179,-1.09449,-0.52705,0.099614,0.110891,0.018957,0.018957,0.85267,-0.005659,-0.008225,0.522355,-1.0453,-0.46493,62.98848
138908,1389093,1642,-294,12030,-76,-185,-223,0.00798,-0.01946,0.99736,0.01374,-0.00916,0.44198,-1.11798,-0.45855,0.99758,-1.09577,-0.52696,0.099653,0.110769,0.018486,0.018486,0.852649,-0.005669,-0.00823,0.522388,-1.04664,-0.46481,62.99292
138909,1389103,1694,-300,12096,-66,-199,-223,0.01117,-0.01983,1.00128,0.09008,-0.11603,0.44198,-1.13465,-0.63929,1.00154,-1.09661,-0.53133,0.099723,0.110968,0.019101,0.019101,0.852629,-0.005654,-0.008268,0.522421,-1.04753,-0.46937,62.99737
138910,1389113,1656,-234,12058,-67,-200,-217,0.00884,-0.01578,0.99903,0.08244,-0.12366,0.48779,-0.9051,-0.50707,0.99919,-1.09306,-0.53316,0.099371,0.110919,0.019411,0.019411,0.852607,-0.005618,-0.008266,0.522457,-1.0439,-0.47128,63.00224
138911,1389123,1658,-292,12032,-67,-183,-217,0.00897,-0.01934,0.99748,0.08244,0.00611,0.48779,-1.1108,-0.51488,0.99771,-1.09355,-0.53385,0.099402,0.110885,0.018565,0.018565,0.852585,-0.005619,-0.008274,0.522493,-1.04445,-0.47199,63.00712
138912,1389133,1658,-308,12036,-65,-170,-218,0.00897,-0.02032,0.99772,0.09771,0.10534,0.48015,-1.16688,-0.51474,0.99797,-1.09495,-0.53355,0.099532,0.110851,0.018761,0.018761,0.852563,-0.005631,-0.008279,0.522529,-1.04595,-0.4717,63.01192
138913,1389143,1696,-258,12074,-60,-165,-224,0.0113,-0.01726,0.99998,0.13588,0.14351,0.43435,-0.98857,-0.64719,1.00019,-1.09251,-0.53545,0.099336,0.111062,0.019512,0.019512,0.852543,-0.005603,-0.008283,0.522561,-1.04348,-0.4737,63.01624
138914,1389153,1660,-256,12032,-62,-162,-220,0.00909,-0.01713,0.99748,0.12061,0.16641,0.46489,-0.984,-0.52194,0.99767,-1.0903,-0.53465,0.099146,0.111039,0.018516,0.018516,0.852522,-0.005589,-0.008267,0.522596,-1.04113,-0.47291,63.02084
138915,1389163,1684,-306,12044,-68,-167,-219,0.01056,-0.0202,0.99819,0.07481,0.12824,0.47252,-1.15928,-0.60605,0.99845,-1.09185,-0.53584,0.09927,0.111168,0.019058,0.019058,0.852501,-0.005595,-0.008284,0.522631,-1.04278,-0.4742,63.02557
