sample_index,timestamp_ms,accel_x_raw,accel_y_raw,accel_z_raw,gyro_x_raw,gyro_y_raw,gyro_z_raw,accel_x_g,accel_y_g,accel_z_g,gyro_x_dps,gyro_y_dps,gyro_z_dps,roll_acc_deg,pitch_acc_deg,accel_magnitude_g,roll_kf_deg,pitch_kf_deg,roll_bias_dps,pitch_bias_dps,roll_k_angle,pitch_k_angle,qw,qx,qy,qz,mahony_roll_deg,mahony_pitch_deg,mahony_yaw_deg
160836,1608373,1546,-134,12132,-137,278,-1188,0.00209,-0.00965,1.00342,-0.45191,3.52519,-6.92443,-0.55094,-0.11948,1.00347,-1.2148,-0.90636,0.020851,0.08704,0.028488,0.028488,0.458557,0.002429,-0.01233,0.888576,-1.12805,-0.89533,125.41608
160837,1608383,1622,-340,12038,-93,19,-364,0.00676,-0.02229,0.99784,-0.11603,1.54809,-0.63435,-1.27939,-0.38785,0.99811,-1.21808,-0.87651,0.021029,0.08562,0.030254,0.030254,0.458607,0.002215,-0.01226,0.888552,-1.13213,-0.86986,125.40948
160838,1608393,1620,-308,12002,-99,-105,-305,0.00663,-0.02032,0.9957,-0.16183,0.60153,-0.18397,-1.16924,-0.38164,0.99593,-1.21857,-0.85837,0.020904,0.084412,0.026493,0.026493,0.458622,0.002085,-0.012216,0.888545,-1.13445,-0.85428,125.40753
160839,1608403,1658,-326,12088,-107,-192,-308,0.00897,-0.02143,1.00081,-0.2229,-0.0626,-0.20687,-1.22646,-0.51314,1.00108,-1.22117,-0.84944,0.020919,0.083444,0.029992,0.029992,0.458637,0.002021,-0.012222,0.888537,-1.13848,-0.84813,125.40549
160840,1608413,1698,-286,12048,-100,-229,-308,0.01142,-0.01897,0.99843,-0.16947,-0.34504,-0.20687,-1.08863,-0.65521,0.99868,-1.21913,-0.84791,0.020552,0.082902,0.029316,0.029316,0.458653,0.002015,-0.012226,0.888529,-1.13915,-0.84777,125.4035
160841,1608423,1638,-294,12060,-97,-208,-304,0.00774,-0.01946,0.99914,-0.14656,-0.18473,-0.17634,-1.11598,-0.44365,0.99936,-1.21774,-0.8387,0.020267,0.081795,0.029218,0.029218,0.458666,0.001963,-0.012209,0.888523,-1.14013,-0.84157,125.40176
160842,1608433,1686,-300,12040,-101,-147,-301,0.01068,-0.01983,0.99796,-0.1771,0.28092,-0.15344,-1.13844,-0.61325,0.99821,-1.21744,-0.83045,0.020055,0.081213,0.027995,0.027995,0.458678,0.001899,-0.012193,0.888517,-1.14184,-0.83424,125.40017
160843,1608443,1630,-316,12062,-83,-107,-303,0.00725,-0.02081,0.99926,-0.03969,0.58626,-0.1687,-1.1932,-0.41545,0.99951,-1.21733,-0.81376,0.01999,0.08013,0.02838,0.02838,0.458691,0.001783,-0.012147,0.888511,-1.14324,-0.82004,125.39838
160844,1608453,1622,-304,12076,-90,-60,-306,0.00676,-0.02008,1.0001,-0.09313,0.94504,-0.1916,-1.15005,-0.38699,1.00032,-1.21655,-0.79341,0.019811,0.07904,0.027999,0.027999,0.458706,0.001638,-0.012083,0.888504,-1.14428,-0.80197,125.39626
160845,1608463,1630,-286,12054,-89,-31,-316,0.00725,-0.01897,0.99879,-0.0855,1.16641,-0.26794,-1.08824,-0.41566,0.99899,-1.21406,-0.7725,0.019482,0.078106,0.02736,0.02736,0.458728,0.00149,-0.012003,0.888494,-1.14398,-0.78264,125.39336
160846,1608473,1628,-312,12048,-111,-31,-326,0.00712,-0.02057,0.99843,-0.25344,1.16641,-0.34427,-1.18012,-0.40876,0.99867,-1.21581,-0.75216,0.01939,0.077226,0.026796,0.026796,0.458756,0.001329,-0.011952,0.888481,-1.14718,-0.76359,125.38968
160847,1608483,1628,-314,12038,-107,-106,-334,0.00712,-0.02069,0.99784,-0.2229,0.59389,-0.40534,-1.18786,-0.409,0.99808,-1.21744,-0.73821,0.019317,0.076409,0.025976,0.025976,0.458787,0.001216,-0.011923,0.888465,-1.15017,-0.75067,125.38551
160848,1608493,1664,-332,12132,-96,-174,-335,0.00933,-0.02179,1.00342,-0.13893,0.07481,-0.41298,-1.24427,-0.53282,1.0037,-1.21962,-0.73341,0.019372,0.07596,0.023463,0.023463,0.458819,0.001164,-0.011928,0.888449,-1.15336,-0.7457,125.3814
160849,1608503,1654,-290,12060,-94,-215,-329,0.00872,-0.01922,0.99914,-0.12366,-0.23817,-0.36718,-1.10192,-0.49995,0.99937,-1.21792,-0.73034,0.019081,0.075382,0.026248,0.026248,0.458847,0.001144,-0.01192,0.888435,-1.15352,-0.74324,125.37777
160850,1608513,1638,-280,12020,-91,-243,-317,0.00774,-0.0186,0.99677,-0.10076,-0.45191,-0.27557,-1.0693,-0.44472,0.99697,-1.21554,-0.72866,0.018748,0.074735,0.023904,0.023904,0.458868,0.001136,-0.011909,0.888424,-1.15282,-0.7419,125.37506
160851,1608523,1660,-278,12044,-94,-229,-314,0.00909,-0.01848,0.99819,-0.12366,-0.34504,-0.25267,-1.06073,-0.52156,0.99841,-1.21303,-0.72754,0.018382,0.07424,0.025173,0.025173,0.458887,0.001132,-0.0119,0.888414,-1.15219,-0.74101,125.37259
160852,1608533,1622,-240,12028,-93,-194,-312,0.00676,-0.01615,0.99724,-0.11603,-0.07786,-0.2374,-0.92786,-0.38813,0.9974,-1.20751,-0.7209,0.017743,0.07348,0.023944,0.023944,0.458905,0.001097,-0.01185,0.888405,-1.14886,-0.73482,125.37017
160853,1608543,1678,-296,12032,-88,-175,-314,0.01019,-0.01959,0.99748,-0.07786,0.06718,-0.25267,-1.12489,-0.58535,0.99772,-1.20646,-0.71769,0.017556,0.073176,0.024077,0.024077,0.458925,0.001068,-0.011838,0.888395,-1.14913,-0.73123,125.36763
160854,1608553,1644,-266,12034,-94,-187,-308,0.00811,-0.01775,0.9976,-0.12366,-0.02443,-0.20687,-1.0191,-0.4655,0.99779,-1.20335,-0.71261,0.017135,0.072613,0.023921,0.023921,0.458941,0.001034,-0.011807,0.888388,-1.14776,-0.72622,125.36553
160855,1608563,1672,-338,12066,-86,-183,-309,0.00982,-0.02216,0.9995,-0.0626,0.00611,-0.2145,-1.27024,-0.56304,0.99979,-1.20579,-0.70955,0.017288,0.072265,0.024827,0.024827,0.458957,0.000996,-0.011817,0.888379,-1.1508,-0.72294,125.36343
160856,1608573,1642,-330,12044,-84,-186,-309,0.00798,-0.02167,0.99819,-0.04733,-0.01679,-0.2145,-1.24375,-0.45814,0.99846,-1.20734,-0.70437,0.017372,0.071701,0.024041,0.024041,0.458973,0.000947,-0.011815,0.888371,-1.1531,-0.71787,125.36129
160857,1608583,1652,-306,12026,-87,-179,-313,0.0086,-0.0202,0.99712,-0.07023,0.03664,-0.24504,-1.16052,-0.4939,0.99737,-1.20712,-0.69991,0.01727,0.071252,0.022835,0.022835,0.458992,0.000907,-0.011802,0.888361,-1.15392,-0.71311,125.35885
160858,1608593,1652,-336,11984,-87,-163,-306,0.0086,-0.02204,0.99463,-0.07023,0.15878,-0.1916,-1.26939,-0.49512,0.99491,-1.20918,-0.6951,0.017381,0.070885,0.019315,0.019315,0.459007,0.00085,-0.011802,0.888354,-1.15685,-0.70731,125.35693
160859,1608603,1610,-334,12022,-80,-153,-309,0.00602,-0.02192,0.99689,-0.01679,0.23511,-0.2145,-1.25947,-0.34591,0.99715,-1.21064,-0.68569,0.017485,0.070163,0.022328,0.022328,0.459023,0.000768,-0.011781,0.888346,-1.15903,-0.69783,125.35477
160860,1608613,1680,-316,12114,-79,-163,-310,0.01032,-0.02081,1.00235,-0.00916,0.15878,-0.22214,-1.18952,-0.58951,1.00262,-1.21043,-0.68267,0.01744,0.069964,0.022434,0.022434,0.45904,0.000736,-0.011771,0.888337,-1.1597,-0.69414,125.35252
160861,1608623,1626,-270,12078,-87,-177,-310,0.007,-0.01799,1.00021,-0.07023,0.05191,-0.22214,-1.03049,-0.40102,1.0004,-1.20701,-0.67616,0.01704,0.06934,0.023738,0.023738,0.459058,0.000694,-0.011731,0.888329,-1.15779,-0.6878,125.35026
160862,1608633,1620,-312,12076,-95,-196,-312,0.00663,-0.02057,1.0001,-0.1313,-0.09313,-0.2374,-1.17815,-0.37996,1.00033,-1.20778,-0.67077,0.016974,0.068687,0.02356,0.02356,0.459075,0.000647,-0.011723,0.88832,-1.15948,-0.68262,125.34791
160863,1608643,1594,-336,12110,-94,-190,-307,0.00504,-0.02204,1.00212,-0.12366,-0.04733,-0.19924,-1.25991,-0.28798,1.00237,-1.21031,-0.66341,0.017078,0.067893,0.022185,0.022185,0.45909,0.000577,-0.011719,0.888312,-1.16269,-0.67529,125.34594
160864,1608653,1642,-298,12090,-84,-183,-308,0.00798,-0.01971,1.00093,-0.04733,0.00611,-0.20687,-1.12804,-0.45691,1.00115,-1.20905,-0.65927,0.016901,0.06745,0.022957,0.022957,0.459106,0.000544,-0.011699,0.888304,-1.16245,-0.67091,125.34386
160865,1608663,1594,-346,11984,-79,-178,-315,0.00504,-0.02265,0.99463,-0.00916,0.04427,-0.26031,-1.30471,-0.29015,0.9949,-1.21107,-0.6527,0.017065,0.066816,0.018413,0.018413,0.459126,0.000472,-0.01169,0.888294,-1.16528,-0.6631,125.34128
160866,1608673,1598,-264,12042,-97,-172,-313,0.00528,-0.01762,0.99807,-0.14656,0.09008,-0.24504,-1.01158,-0.30326,0.99824,-1.20821,-0.64466,0.016645,0.066088,0.022364,0.022364,0.459145,0.000416,-0.011645,0.888285,-1.16366,-0.65507,125.33878
160867,1608683,1688,-340,12078,-109,-160,-317,0.01081,-0.02229,1.00021,-0.23817,0.18168,-0.27557,-1.27636,-0.61886,1.00052,-1.21225,-0.64294,0.016785,0.066036,0.022833,0.022833,0.459166,0.000378,-0.011671,0.888274,-1.16826,-0.65259,125.33602
160868,1608693,1646,-268,12084,-96,-179,-316,0.00823,-0.01787,1.00057,-0.13893,0.03664,-0.26794,-1.0231,-0.47114,1.00076,-1.2095,-0.63935,0.016383,0.065673,0.022613,0.022613,0.459187,0.000353,-0.011643,0.888263,-1.16672,-0.64865,125.33329
160869,1608703,1664,-330,11822,-74,-179,-311,0.00933,-0.02167,0.985,0.02901,0.03664,-0.22977,-1.2604,-0.54278,0.98529,-1.20974,-0.63893,0.016417,0.065607,0.007252,0.007252,0.459204,0.000332,-0.011645,0.888254,-1.16794,-0.64659,125.33101
160870,1608713,1670,-302,11962,-104,-181,-316,0.0097,-0.01995,0.99332,-0.2,0.02137,-0.26794,-1.15082,-0.55949,0.99357,-1.21091,-0.63808,0.016325,0.065487,0.016236,0.016236,0.459225,0.000311,-0.01165,0.888243,-1.16958,-0.64476,125.32832
160871,1608723,1686,-288,12048,-109,-168,-315,0.01068,-0.0191,0.99843,-0.23817,0.12061,-0.26031,-1.09567,-0.61296,0.99867,-1.21082,-0.63698,0.016079,0.065435,0.022409,0.022409,0.459246,0.000294,-0.01165,0.888233,-1.17046,-0.64297,125.32569
160872,1608733,1612,-276,11942,-96,-188,-308,0.00614,-0.01836,0.99213,-0.13893,-0.03206,-0.20687,-1.06013,-0.35468,0.99232,-1.21018,-0.63388,0.015875,0.065055,0.014374,0.014374,0.459261,0.000257,-0.011624,0.888225,-1.16974,-0.63789,125.32359
160873,1608743,1594,-312,12076,-99,-198,-309,0.00504,-0.02057,1.0001,-0.16183,-0.1084,-0.2145,-1.17815,-0.28857,1.00032,-1.21119,-0.62775,0.015803,0.064321,0.022675,0.022675,0.459278,0.000204,-0.011614,0.888217,-1.1715,-0.63203,125.32146
160874,1608753,1688,-358,12060,-100,-193,-308,0.01081,-0.02339,0.99914,-0.16947,-0.07023,-0.20687,-1.341,-0.6195,0.99948,-1.21592,-0.62888,0.016072,0.064301,0.022493,0.022493,0.459293,0.000187,-0.011655,0.888208,-1.17657,-0.63252,125.31945
160875,1608763,1610,-310,12016,-91,-195,-306,0.00602,-0.02044,0.99653,-0.10076,-0.0855,-0.1916,-1.17532,-0.34604,0.99676,-1.21624,-0.62459,0.015992,0.063762,0.020328,0.020328,0.459308,0.000146,-0.011644,0.888201,-1.17753,-0.62775,125.31757
160876,1608773,1662,-260,11936,-78,-196,-298,0.00921,-0.01738,0.99178,-0.00153,-0.09313,-0.13053,-1.00383,-0.53203,0.99197,-1.2135,-0.62487,0.015721,0.063641,0.013698,0.013698,0.459318,0.000153,-0.011615,0.888196,-1.17426,-0.62691,125.31622
160877,1608783,1610,-310,12076,-86,-177,-300,0.00602,-0.02044,1.0001,-0.0626,0.05191,-0.1458,-1.17113,-0.34481,1.00032,-1.21332,-0.61872,0.015631,0.063056,0.022367,0.022367,0.459329,0.000103,-0.011595,0.888191,-1.17481,-0.62078,125.31475
160878,1608793,1600,-326,12042,-83,-155,-302,0.00541,-0.02143,0.99807,-0.03969,0.21985,-0.16107,-1.22982,-0.31028,0.99832,-1.21422,-0.61051,0.015663,0.062436,0.021661,0.021661,0.459341,3.2e-05,-0.011572,0.888185,-1.17629,-0.61242,125.31311
160879,1608803,1598,-330,11962,-82,-155,-298,0.00528,-0.02167,0.99332,-0.03206,0.21985,-0.13053,-1.24984,-0.30469,0.99357,-1.21525,-0.60414,0.015715,0.061988,0.015773,0.015773,0.459351,-3.8e-05,-0.011553,0.88818,-1.17801,-0.60434,125.31178
160880,1608813,1622,-270,11978,-82,-150,-299,0.00676,-0.01799,0.99427,-0.03206,0.25802,-0.13817,-1.03665,-0.38927,0.99446,-1.21268,-0.59855,0.015429,0.061649,0.017044,0.017044,0.459362,-8e-05,-0.011508,0.888175,-1.17557,-0.59761,125.31031
160881,1608823,1690,-306,12064,-94,-165,-304,0.01093,-0.0202,0.99938,-0.12366,0.14351,-0.17634,-1.1579,-0.62643,0.99965,-1.21283,-0.59836,0.015313,0.061708,0.022126,0.022126,0.459376,-9e-05,-0.011511,0.888167,-1.17643,-0.59679,125.30853
160882,1608833,1680,-282,12030,-101,-170,-297,0.01032,-0.01873,0.99736,-0.1771,0.10534,-0.1229,-1.07571,-0.59248,0.99759,-1.21185,-0.59781,0.015043,0.061697,0.020849,0.020849,0.459386,-9.8e-05,-0.011505,0.888162,-1.17619,-0.59568,125.30725
160883,1608843,1588,-276,12028,-88,-173,-297,0.00467,-0.01836,0.99724,-0.07786,0.08244,-0.1229,-1.0547,-0.26826,0.99742,-1.20952,-0.59082,0.014738,0.061063,0.020604,0.020604,0.459395,-0.000148,-0.011463,0.888158,-1.17454,-0.58837,125.30597
160884,1608853,1606,-330,12056,-90,-166,-294,0.00577,-0.02167,0.99891,-0.09313,0.13588,-0.1,-1.24286,-0.33114,0.99916,-1.2113,-0.58445,0.014804,0.060538,0.021708,0.021708,0.459403,-0.000207,-0.011454,0.888154,-1.17683,-0.58189,125.30497
160885,1608863,1658,-328,12092,-89,-165,-298,0.00897,-0.02155,1.00105,-0.0855,0.14351,-0.13053,-1.23319,-0.51302,1.00132,-1.21275,-0.58211,0.014845,0.060397,0.021389,0.021389,0.459413,-0.000237,-0.011458,0.888149,-1.17879,-0.57911,125.30365
160886,1608873,1608,-300,12034,-87,-163,-298,0.0059,-0.01983,0.9976,-0.07023,0.15878,-0.13053,-1.13884,-0.33863,0.99781,-1.21206,-0.57611,0.014701,0.059928,0.020688,0.020688,0.459423,-0.000286,-0.011432,0.888144,-1.17869,-0.57276,125.30231
160887,1608883,1628,-304,12076,-89,-157,-293,0.00712,-0.02008,1.0001,-0.0855,0.20458,-0.09237,-1.15005,-0.40808,1.00032,-1.2117,-0.57107,0.014574,0.059592,0.021554,0.021554,0.45943,-0.000328,-0.011413,0.888141,-1.17896,-0.56744,125.30132
160888,1608893,1712,-312,12000,-94,-151,-288,0.01228,-0.02057,0.99558,-0.12366,0.25038,-0.0542,-1.1835,-0.70649,0.99587,-1.21254,-0.57169,0.014523,0.059829,0.018403,0.018403,0.459435,-0.000332,-0.011424,0.888138,-1.18028,-0.56769,125.30074
160889,1608903,1590,-294,12074,-87,-149,-298,0.00479,-0.01946,0.99998,-0.07023,0.26565,-0.13053,-1.11506,-0.27455,1.00018,-1.21128,-0.56331,0.014326,0.059237,0.021443,0.021443,0.459445,-0.000395,-0.011385,0.888133,-1.17967,-0.55919,125.29937
160890,1608913,1634,-290,12074,-85,-176,-297,0.00749,-0.01922,0.99998,-0.05496,0.05954,-0.1229,-1.101,-0.42923,1.00019,-1.2096,-0.56044,0.014104,0.058969,0.02135,0.02135,0.459454,-0.000416,-0.011365,0.888129,-1.17863,-0.55603,125.2981
160891,1608923,1684,-294,12004,-89,-185,-298,0.01056,-0.01946,0.99582,-0.0855,-0.00916,-0.13053,-1.11971,-0.60751,0.99606,-1.20892,-0.56198,0.013947,0.059049,0.018468,0.018468,0.459464,-0.000406,-0.011367,0.888123,-1.17831,-0.55716,125.29681
160892,1608933,1682,-304,12118,-95,-168,-294,0.01044,-0.02008,1.00259,-0.1313,0.12061,-0.1,-1.14719,-0.59639,1.00285,-1.20913,-0.56205,0.013831,0.059114,0.019682,0.019682,0.459472,-0.000412,-0.01137,0.888119,-1.179,-0.55675,125.29576
160893,1608943,1626,-290,12064,-82,-156,-292,0.007,-0.01922,0.99938,-0.03206,0.21221,-0.08473,-1.10166,-0.40134,0.99959,-1.2073,-0.55715,0.013617,0.058799,0.021157,0.021157,0.459479,-0.000447,-0.01134,0.888116,-1.17776,-0.55154,125.29485
160894,1608953,1580,-312,11976,-90,-161,-305,0.00418,-0.02057,0.99415,-0.09313,0.17405,-0.18397,-1.18519,-0.2408,0.99437,-1.208,-0.55092,0.013582,0.058323,0.016117,0.016117,0.459493,-0.000512,-0.011317,0.888109,-1.17882,-0.54381,125.29299
160895,1608963,1662,-320,12074,-95,-158,-300,0.00921,-0.02106,0.99998,-0.1313,0.19695,-0.1458,-1.2064,-0.52763,1.00024,-1.20938,-0.54907,0.013576,0.05828,0.021123,0.021123,0.459505,-0.000537,-0.011322,0.888103,-1.18067,-0.54155,125.2915
160896,1608973,1622,-292,12040,-98,-167,-301,0.00676,-0.01934,0.99796,-0.1542,0.12824,-0.15344,-1.11027,-0.38783,0.99817,-1.209,-0.5451,0.013384,0.057973,0.020384,0.020384,0.459516,-0.000571,-0.011306,0.888097,-1.18079,-0.53723,125.28993
160897,1608983,1614,-302,12070,-94,-182,-299,0.00627,-0.01995,0.99974,-0.12366,0.01374,-0.13817,-1.14343,-0.359,0.99996,-1.20897,-0.54163,0.013252,0.057607,0.020993,0.020993,0.459527,-0.000602,-0.011295,0.888092,-1.18127,-0.53356,125.28853
160898,1608993,1650,-274,12082,-101,-182,-297,0.00847,-0.01824,1.00045,-0.1771,0.01374,-0.1229,-1.04429,-0.48525,1.00065,-1.2074,-0.54088,0.012927,0.057496,0.020832,0.020832,0.459537,-0.000606,-0.011283,0.888087,-1.18029,-0.53248,125.28728
160899,1609003,1586,-316,12092,-97,-174,-297,0.00455,-0.02081,1.00105,-0.14656,0.07481,-0.1229,-1.19107,-0.26021,1.00127,-1.20863,-0.53495,0.012893,0.056957,0.020524,0.020524,0.459546,-0.000661,-0.011271,0.888082,-1.18196,-0.52632,125.28603
160900,1609013,1622,-316,12102,-94,-169,-298,0.00676,-0.02081,1.00164,-0.12366,0.11298,-0.13053,-1.19037,-0.38639,1.00188,-1.2096,-0.53142,0.012856,0.056678,0.020093,0.020093,0.459556,-0.000696,-0.011266,0.888077,-1.18335,-0.52243,125.28471
160901,1609023,1620,-276,11954,-86,-170,-300,0.00663,-0.01836,0.99285,-0.0626,0.10534,-0.1458,-1.05937,-0.38275,0.99304,-1.20823,-0.52885,0.012657,0.056483,0.014062,0.014062,0.459567,-0.000718,-0.011238,0.888071,-1.1816,-0.51875,125.2832
160902,1609033,1610,-300,12034,-87,-173,-303,0.00602,-0.01983,0.9976,-0.07023,0.08244,-0.1687,-1.13884,-0.34568,0.99781,-1.20767,-0.52495,0.012526,0.056142,0.019879,0.019879,0.45958,-0.000751,-0.01122,0.888065,-1.18144,-0.51451,125.28149
160903,1609043,1602,-288,12000,-97,-174,-299,0.00553,-0.0191,0.99558,-0.14656,0.07481,-0.13817,-1.09881,-0.31814,0.99578,-1.2073,-0.52111,0.012343,0.0558,0.017675,0.017675,0.459591,-0.000785,-0.0112,0.88806,-1.18127,-0.50993,125.28007
160904,1609053,1624,-296,12028,-98,-184,-301,0.00688,-0.01959,0.99724,-0.1542,-0.00153,-0.15344,-1.12516,-0.39515,0.99746,-1.20733,-0.51922,0.01219,0.055568,0.019524,0.019524,0.459603,-0.000805,-0.011194,0.888054,-1.18168,-0.5077,125.27853
160905,1609063,1640,-306,12046,-98,-182,-302,0.00786,-0.0202,0.99831,-0.1542,0.01374,-0.16107,-1.15914,-0.45106,0.99855,-1.20799,-0.51824,0.012095,0.055438,0.0203,0.0203,0.459615,-0.000819,-0.011198,0.888047,-1.18276,-0.50646,125.27692
160906,1609073,1630,-318,12062,-97,-186,-296,0.00725,-0.02094,0.99926,-0.14656,-0.01679,-0.11527,-1.20023,-0.41545,0.99951,-1.20938,-0.51683,0.012077,0.055238,0.020616,0.020616,0.459624,-0.000839,-0.011205,0.888042,-1.18456,-0.50484,125.27576
160907,1609083,1596,-348,12028,-86,-182,-300,0.00516,-0.02278,0.99724,-0.0626,0.01374,-0.1458,-1.30834,-0.29643,0.99752,-1.21203,-0.51295,0.012256,0.054835,0.019431,0.019431,0.459635,-0.000884,-0.011212,0.888037,-1.18764,-0.50059,125.27433
160908,1609093,1624,-342,12042,-89,-171,-299,0.00688,-0.02241,0.99807,-0.0855,0.09771,-0.13817,-1.28613,-0.3948,0.99835,-1.21448,-0.51017,0.012393,0.054614,0.020035,0.020035,0.459646,-0.000919,-0.011221,0.888031,-1.19044,-0.49753,125.27294
160909,1609103,1652,-268,11960,-96,-171,-298,0.0086,-0.01787,0.9932,-0.13893,0.09771,-0.13053,-1.03069,-0.49587,0.9934,-1.21332,-0.50954,0.012143,0.054595,0.014386,0.014386,0.459656,-0.00092,-0.011204,0.888026,-1.18876,-0.49655,125.2716
160910,1609113,1632,-326,12084,-93,-172,-296,0.00737,-0.02143,1.00057,-0.11603,0.09008,-0.11527,-1.22675,-0.42193,1.00083,-1.21485,-0.5074,0.012166,0.054428,0.020454,0.020454,0.459665,-0.000946,-0.01121,0.888021,-1.19067,-0.49418,125.27042
160911,1609123,1666,-322,12082,-97,-159,-295,0.00946,-0.02118,1.00045,-0.14656,0.18931,-0.10763,-1.21285,-0.54143,1.00072,-1.21637,-0.50677,0.01216,0.054496,0.020432,0.020432,0.459673,-0.000961,-0.011221,0.888017,-1.19257,-0.49325,125.2693
160912,1609133,1688,-294,12026,-91,-143,-296,0.01081,-0.01946,0.99712,-0.10076,0.31145,-0.11527,-1.11824,-0.62081,0.99737,-1.21559,-0.50644,0.011981,0.054706,0.019185,0.019185,0.459683,-0.000964,-0.011215,0.888012,-1.19209,-0.4927,125.26807
160913,1609143,1592,-292,12068,-97,-139,-295,0.00492,-0.01934,0.99962,-0.14656,0.34198,-0.10763,-1.10842,-0.28168,0.99982,-1.21495,-0.49903,0.011772,0.05428,0.020448,0.020448,0.459691,-0.001022,-0.011183,0.888008,-1.19187,-0.48508,125.26693
160914,1609153,1654,-276,12050,-92,-142,-306,0.00872,-0.01836,0.99855,-0.1084,0.31908,-0.1916,-1.05332,-0.50025,0.99876,-1.21288,-0.49646,0.011465,0.054287,0.020097,0.020097,0.459707,-0.001037,-0.011158,0.888,-1.19017,-0.48223,125.26492
160915,1609163,1624,-300,12018,-99,-147,-306,0.00688,-0.01983,0.99665,-0.16183,0.28092,-0.1916,-1.13993,-0.39538,0.99687,-1.21323,-0.49236,0.011335,0.054115,0.018574,0.018574,0.459722,-0.001075,-0.011145,0.887992,-1.19078,-0.47774,125.26292
160916,1609173,1634,-284,11976,-101,-156,-308,0.00749,-0.01885,0.99415,-0.1771,0.21221,-0.20687,-1.08625,-0.43174,0.99436,-1.21312,-0.48986,0.011147,0.054029,0.01551,0.01551,0.459738,-0.001097,-0.011131,0.887984,-1.19051,-0.47477,125.26081
160917,1609183,1602,-284,12058,-103,-153,-305,0.00553,-0.01885,0.99903,-0.19237,0.23511,-0.18397,-1.08095,-0.31704,0.99922,-1.21243,-0.48458,0.010891,0.053703,0.02027,0.02027,0.459753,-0.001138,-0.011106,0.887977,-1.19022,-0.46931,125.2589
160918,1609193,1596,-284,12000,-97,-162,-310,0.00516,-0.01885,0.99558,-0.14656,0.16641,-0.22214,-1.08469,-0.29695,0.99577,-1.21177,-0.48023,0.010681,0.0534,0.017311,0.017311,0.45977,-0.001175,-0.011081,0.887968,-1.1896,-0.4643,125.25663
160919,1609203,1622,-314,12012,-106,-169,-310,0.00676,-0.02069,0.99629,-0.21527,0.11298,-0.22214,-1.1897,-0.38846,0.99653,-1.21358,-0.47797,0.01064,0.053244,0.018208,0.018208,0.459787,-0.001204,-0.011088,0.887959,-1.19173,-0.46172,125.25439
160920,1609213,1594,-280,11976,-99,-169,-312,0.00504,-0.0186,0.99415,-0.16183,0.11298,-0.2374,-1.07211,-0.29031,0.99434,-1.21309,-0.47448,0.010431,0.052972,0.015489,0.015489,0.459805,-0.001235,-0.011064,0.88795,-1.19102,-0.45732,125.25197
160921,1609223,1614,-316,12090,-101,-162,-311,0.00627,-0.02081,1.00093,-0.1771,0.16641,-0.22977,-1.19121,-0.35857,1.00116,-1.21449,-0.47103,0.010386,0.052755,0.020131,0.020131,0.459823,-0.00127,-0.011064,0.887941,-1.19277,-0.45373,125.24965
160922,1609233,1612,-280,12096,-94,-169,-308,0.00614,-0.0186,1.00128,-0.12366,0.11298,-0.20687,-1.06448,-0.35144,1.00148,-1.21281,-0.46806,0.010103,0.052532,0.019928,0.019928,0.459839,-0.001289,-0.011041,0.887933,-1.19143,-0.4506,125.24753
160923,1609243,1644,-312,12030,-97,-166,-307,0.00811,-0.02057,0.99736,-0.14656,0.13588,-0.19924,-1.18138,-0.46558,0.99761,-1.21374,-0.46719,0.010043,0.052529,0.019233,0.019233,0.459855,-0.001302,-0.011046,0.887924,-1.19268,-0.44958,125.24551
160924,1609253,1654,-324,11960,-93,-170,-307,0.00872,-0.0213,0.9932,-0.11603,0.10534,-0.19924,-1.22877,-0.50292,0.99347,-1.2152,-0.46718,0.010062,0.052578,0.014308,0.014308,0.459871,-0.00131,-0.01106,0.887916,-1.19452,-0.4496,125.2435
160925,1609263,1662,-314,12052,-98,-178,-309,0.00921,-0.02069,0.99867,-0.1542,0.04427,-0.2145,-1.18687,-0.52833,0.99893,-1.21624,-0.4685,0.010005,0.052693,0.020132,0.020132,0.459887,-0.001306,-0.011076,0.887907,-1.19589,-0.45077,125.24134
160926,1609273,1618,-272,12010,-98,-173,-303,0.00651,-0.01811,0.99617,-0.1542,0.08244,-0.1687,-1.04172,-0.37441,0.99636,-1.21471,-0.46651,0.009707,0.052535,0.01798,0.01798,0.459901,-0.001318,-0.011055,0.887901,-1.19438,-0.44847,125.23961
160927,1609283,1632,-276,12050,-98,-174,-300,0.00737,-0.01836,0.99855,-0.1542,0.07481,-0.1458,-1.05332,-0.42281,0.99875,-1.21309,-0.46542,0.0094,0.052453,0.020006,0.020006,0.459912,-0.001323,-0.01104,0.887895,-1.19309,-0.44724,125.23813
160928,1609293,1616,-332,12066,-94,-176,-301,0.00639,-0.02179,0.9995,-0.12366,0.05954,-0.15344,-1.24915,-0.36611,0.99976,-1.21513,-0.46334,0.009467,0.052264,0.020261,0.020261,0.459924,-0.001349,-0.011049,0.887889,-1.19544,-0.44506,125.23657
160929,1609303,1616,-260,12028,-92,-169,-308,0.00639,-0.01738,0.99724,-0.1084,0.11298,-0.20687,-0.99833,-0.36697,0.99741,-1.21217,-0.46091,0.009077,0.052093,0.018984,0.018984,0.45994,-0.001358,-0.011017,0.887881,-1.19259,-0.44242,125.23446
160930,1609313,1620,-290,12044,-95,-178,-305,0.00663,-0.01922,0.99819,-0.1313,0.04427,-0.18397,-1.10297,-0.38069,0.9984,-1.21139,-0.45941,0.008872,0.051944,0.019714,0.019714,0.459955,-0.001369,-0.011006,0.887873,-1.1921,-0.44078,125.23258
160931,1609323,1640,-230,12088,-92,-186,-302,0.00786,-0.01554,1.00081,-0.1084,-0.01679,-0.16107,-0.88945,-0.44997,1.00096,-1.2061,-0.45989,0.008264,0.051925,0.019994,0.019994,0.459967,-0.001347,-0.010969,0.887867,-1.18712,-0.44117,125.23093
160932,1609333,1544,-290,12004,-90,-197,-301,0.00197,-0.01922,0.99582,-0.09313,-0.10076,-0.15344,-1.1056,-0.11332,0.996,-1.20535,-0.45536,0.008098,0.051354,0.017412,0.017412,0.459979,-0.001386,-0.010942,0.887861,-1.18644,-0.43576,125.22942
160933,1609343,1612,-322,12040,-87,-194,-306,0.00614,-0.02118,0.99796,-0.07023,-0.07786,-0.1916,-1.21588,-0.35259,0.9982,-1.20632,-0.45462,0.008116,0.051163,0.019529,0.019529,0.459994,-0.001398,-0.010949,0.887854,-1.18771,-0.43492,125.22752
160934,1609353,1574,-298,11956,-88,-196,-300,0.00381,-0.01971,0.99296,-0.07786,-0.09313,-0.1458,-1.13708,-0.21985,0.99317,-1.20621,-0.4528,0.008025,0.050856,0.013805,0.013805,0.460005,-0.001421,-0.010934,0.887848,-1.18751,-0.43177,125.22607
160935,1609363,1626,-318,12088,-94,-180,-301,0.007,-0.02094,1.00081,-0.12366,0.02901,-0.15344,-1.19838,-0.40076,1.00105,-1.20735,-0.45198,0.008008,0.050758,0.019989,0.019989,0.460016,-0.001434,-0.010942,0.887842,-1.18895,-0.43089,125.22454
160936,1609373,1630,-262,11996,-97,-182,-296,0.00725,-0.0175,0.99534,-0.14656,0.01374,-0.11527,-1.00729,-0.41711,0.99552,-1.2055,-0.45175,0.007688,0.050702,0.016854,0.016854,0.460026,-0.001429,-0.010924,0.887837,-1.18685,-0.43051,125.22335
160937,1609383,1594,-264,12006,-98,-183,-294,0.00504,-0.01762,0.99594,-0.1542,0.00611,-0.1,-1.01375,-0.28979,0.9961,-1.20372,-0.44934,0.007368,0.050433,0.017577,0.017577,0.460033,-0.001443,-0.010898,0.887834,-1.18497,-0.42769,125.22233
160938,1609393,1626,-296,12042,-87,-183,-295,0.007,-0.01959,0.99807,-0.07023,0.00611,-0.10763,-1.12422,-0.40187,0.99829,-1.20292,-0.44885,0.007219,0.050345,0.019638,0.019638,0.460042,-0.001445,-0.010892,0.887829,-1.18446,-0.42714,125.22124
160939,1609403,1618,-298,12018,-82,-182,-295,0.00651,-0.01971,0.99665,-0.03206,0.01374,-0.10763,-1.13288,-0.37422,0.99686,-1.20201,-0.44783,0.007097,0.050215,0.018396,0.018396,0.46005,-0.001452,-0.010882,0.887825,-1.18375,-0.42598,125.22014
160940,1609413,1638,-352,12056,-92,-189,-301,0.00774,-0.02302,0.99891,-0.1084,-0.03969,-0.15344,-1.32022,-0.44373,0.9992,-1.20551,-0.44863,0.007318,0.050205,0.020036,0.020036,0.460062,-0.001461,-0.010914,0.887819,-1.18755,-0.42676,125.21865
160941,1609423,1670,-256,12034,-96,-205,-297,0.0097,-0.01713,0.9976,-0.13893,-0.16183,-0.1229,-0.98388,-0.55712,0.99779,-1.20269,-0.45279,0.006915,0.050398,0.019206,0.019206,0.460072,-0.001418,-0.010911,0.887814,-1.18487,-0.431,125.21742
160942,1609433,1620,-284,12074,-92,-212,-297,0.00663,-0.01885,0.99998,-0.1084,-0.21527,-0.1229,-1.07992,-0.38002,1.00018,-1.20135,-0.45393,0.00668,0.050255,0.020094,0.020094,0.460081,-0.001405,-0.010907,0.887809,-1.18385,-0.43216,125.21623
160943,1609443,1660,-278,12024,-93,-199,-297,0.00909,-0.01848,0.99701,-0.11603,-0.11603,-0.1229,-1.062,-0.52218,0.99722,-1.19996,-0.45684,0.006433,0.050372,0.018647,0.018647,0.460091,-0.001377,-0.01091,0.887804,-1.18258,-0.43513,125.21499
160944,1609453,1624,-278,12014,-86,-184,-294,0.00688,-0.01848,0.99641,-0.0626,-0.00153,-0.1,-1.06263,-0.39549,0.99661,-1.19816,-0.45624,0.006199,0.050267,0.018018,0.018018,0.460098,-0.001376,-0.010893,0.8878,-1.18083,-0.43438,125.21398
160945,1609463,1630,-290,12056,-84,-187,-291,0.00725,-0.01922,0.99891,-0.04733,-0.02443,-0.0771,-1.10218,-0.41561,0.99912,-1.19678,-0.45617,0.006018,0.050189,0.019902,0.019902,0.460104,-0.001372,-0.010884,0.887797,-1.17973,-0.43427,125.2132
160946,1609473,1658,-272,12058,-82,-180,-291,0.00897,-0.01811,0.99903,-0.03206,0.02901,-0.0771,-1.03875,-0.51409,0.99923,-1.19401,-0.45753,0.005721,0.050298,0.019904,0.019904,0.460111,-0.001352,-0.01087,0.887794,-1.17722,-0.43559,125.21239
160947,1609483,1652,-336,12012,-82,-175,-287,0.0086,-0.02204,0.99629,-0.03206,0.06718,-0.04656,-1.26727,-0.49429,0.99657,-1.19569,-0.45802,0.005844,0.05036,0.017923,0.017923,0.460114,-0.001356,-0.010888,0.887792,-1.17932,-0.43609,125.21193
160948,1609493,1634,-304,12038,-82,-159,-284,0.00749,-0.02008,0.99784,-0.03206,0.18931,-0.02366,-1.15265,-0.43014,0.99807,-1.19523,-0.45612,0.005765,0.050312,0.019286,0.019286,0.460116,-0.001371,-0.010878,0.887791,-1.17911,-0.43408,125.21165
160949,1609503,1596,-296,12048,-82,-149,-292,0.00516,-0.01959,0.99843,-0.03206,0.26565,-0.08473,-1.12382,-0.2961,0.99864,-1.1942,-0.45087,0.005632,0.05002,0.019613,0.019613,0.460123,-0.00141,-0.010851,0.887788,-1.17832,-0.42869,125.21075
160950,1609513,1634,-292,12040,-86,-156,-290,0.00749,-0.01934,0.99796,-0.0626,0.21221,-0.06947,-1.11027,-0.43009,0.99817,-1.19325,-0.44888,0.005478,0.049985,0.019311,0.019311,0.460129,-0.001423,-0.010837,0.887785,-1.17758,-0.42661,125.21001
160951,1609523,1594,-306,12098,-87,-158,-291,0.00504,-0.0202,1.0014,-0.07023,0.19695,-0.0771,-1.15557,-0.2882,1.00162,-1.19326,-0.44432,0.005408,0.049694,0.019424,0.019424,0.460135,-0.001461,-0.01082,0.887782,-1.17784,-0.42189,125.2092
160952,1609533,1642,-314,12054,-94,-157,-293,0.00798,-0.02069,0.99879,-0.12366,0.20458,-0.09237,-1.18673,-0.45788,0.99903,-1.1944,-0.44307,0.005393,0.049722,0.01972,0.01972,0.460142,-0.001477,-0.010825,0.887778,-1.17925,-0.42059,125.20823
160953,1609543,1654,-300,12036,-88,-147,-288,0.00872,-0.01983,0.99772,-0.07786,0.28092,-0.0542,-1.13871,-0.50066,0.99795,-1.19415,-0.4419,0.005292,0.049829,0.019088,0.019088,0.460147,-0.001486,-0.01082,0.887776,-1.17921,-0.41938,125.20761
160954,1609553,1614,-314,12004,-90,-161,-292,0.00627,-0.02069,0.99582,-0.09313,0.17405,-0.08473,-1.19027,-0.36041,0.99605,-1.19505,-0.43927,0.005284,0.049699,0.017225,0.017225,0.460153,-0.001513,-0.010817,0.887772,-1.18036,-0.4165,125.20674
160955,1609563,1610,-282,12080,-98,-178,-293,0.00602,-0.01873,1.00033,-0.1542,0.04427,-0.09237,-1.07251,-0.34474,1.00053,-1.19418,-0.43745,0.005052,0.049522,0.019824,0.019824,0.460161,-0.001525,-0.010805,0.887769,-1.17973,-0.41464,125.20578
160956,1609573,1634,-320,12018,-101,-180,-293,0.00749,-0.02106,0.99665,-0.1771,0.02901,-0.09237,-1.21043,-0.43064,0.9969,-1.19627,-0.43753,0.005076,0.04951,0.018139,0.018139,0.460168,-0.001534,-0.010824,0.887765,-1.18211,-0.41469,125.20487
160957,1609583,1580,-300,12020,-99,-195,-289,0.00418,-0.01983,0.99677,-0.16183,-0.0855,-0.06183,-1.13979,-0.24017,0.99697,-1.19688,-0.43526,0.004976,0.049169,0.018217,0.018217,0.460172,-0.001557,-0.010819,0.887762,-1.18288,-0.41209,125.20425
160958,1609593,1582,-316,12110,-94,-179,-289,0.0043,-0.02081,1.00212,-0.12366,0.03664,-0.06183,-1.1898,-0.2459,1.00234,-1.19801,-0.43181,0.004962,0.048832,0.018842,0.018842,0.460177,-0.001591,-0.010815,0.88776,-1.18425,-0.40844,125.20363
160959,1609603,1632,-294,11968,-88,-172,-291,0.00737,-0.01946,0.99368,-0.07786,0.09008,-0.0771,-1.12212,-0.42487,0.9939,-1.19772,-0.43131,0.004856,0.048823,0.014535,0.014535,0.460183,-0.001594,-0.01081,0.887757,-1.18383,-0.40787,125.20284
160960,1609613,1608,-338,12010,-96,-166,-291,0.0059,-0.02216,0.99617,-0.13893,0.13588,-0.0771,-1.27448,-0.3391,0.99644,-1.20049,-0.42882,0.004982,0.04867,0.017715,0.017715,0.460189,-0.001628,-0.010823,0.887754,-1.187,-0.40517,125.20204
160961,1609623,1602,-262,12006,-96,-166,-291,0.00553,-0.0175,0.99594,-0.13893,0.13588,-0.0771,-1.00669,-0.31803,0.9961,-1.19854,-0.42604,0.004663,0.048491,0.017349,0.017349,0.460195,-0.001643,-0.010794,0.887751,-1.18483,-0.40211,125.20123
160962,1609633,1588,-320,11988,-94,-156,-299,0.00467,-0.02106,0.99487,-0.12366,0.21221,-0.13817,-1.21259,-0.26889,0.9951,-1.20003,-0.42189,0.004682,0.048254,0.016147,0.016147,0.460206,-0.001686,-0.010789,0.887745,-1.1866,-0.39741,125.1998
160963,1609643,1616,-286,12104,-89,-155,-291,0.00639,-0.01897,1.00176,-0.0855,0.21985,-0.0771,-1.08502,-0.3653,1.00196,-1.1987,-0.41912,0.004471,0.048154,0.019264,0.019264,0.460212,-0.001704,-0.010769,0.887742,-1.18543,-0.39459,125.19898
160964,1609653,1650,-298,12060,-96,-165,-295,0.00847,-0.01971,0.99914,-0.13893,0.14351,-0.10763,-1.13005,-0.48587,0.99937,-1.19874,-0.41951,0.00434,0.048281,0.019891,0.019891,0.460221,-0.001702,-0.010772,0.887738,-1.1857,-0.395,125.19786
160965,1609663,1622,-270,12016,-94,-161,-300,0.00676,-0.01799,0.99653,-0.12366,0.17405,-0.1458,-1.0343,-0.38839,0.99672,-1.19703,-0.41772,0.004058,0.04823,0.018028,0.018028,0.460232,-0.001709,-0.010751,0.887732,-1.18393,-0.39316,125.19636
160966,1609673,1642,-274,12010,-94,-164,-304,0.00798,-0.01824,0.99617,-0.12366,0.15115,-0.17634,-1.04878,-0.4591,0.99637,-1.19567,-0.41744,0.003809,0.048301,0.017661,0.017661,0.460246,-0.001705,-0.010739,0.887725,-1.18249,-0.39299,125.19454
160967,1609683,1588,-302,11984,-89,-163,-299,0.00467,-0.01995,0.99463,-0.0855,0.15878,-0.13817,-1.14931,-0.26896,0.99484,-1.19582,-0.414,0.003738,0.048081,0.015822,0.015822,0.460257,-0.001736,-0.010725,0.887719,-1.18269,-0.38901,125.19311
160968,1609693,1604,-298,12044,-98,-174,-299,0.00565,-0.01971,0.99819,-0.1542,0.07481,-0.13817,-1.13112,-0.32434,0.9984,-1.1961,-0.41199,0.003616,0.047916,0.019512,0.019512,0.460268,-0.001754,-0.010721,0.887714,-1.18319,-0.387,125.19171
160969,1609703,1586,-302,12016,-94,-189,-302,0.00455,-0.01995,0.99653,-0.12366,-0.03969,-0.16107,-1.14711,-0.26139,0.99674,-1.19647,-0.41012,0.00353,0.047657,0.018089,0.018089,0.46028,-0.001772,-0.010716,0.887707,-1.1837,-0.38495,125.1901
160970,1609713,1614,-284,12046,-95,-173,-297,0.00627,-0.01885,0.99831,-0.1313,0.08244,-0.1229,-1.08172,-0.35952,0.99851,-1.19554,-0.40879,0.003316,0.047565,0.01955,0.01955,0.46029,-0.00178,-0.010705,0.887702,-1.18297,-0.38364,125.18886
160971,1609723,1636,-290,12008,-91,-180,-296,0.00762,-0.01922,0.99605,-0.10076,0.02901,-0.11527,-1.10534,-0.43797,0.99627,-1.19498,-0.40949,0.003165,0.047613,0.017555,0.017555,0.460299,-0.001771,-0.010705,0.887698,-1.18244,-0.38445,125.18767
160972,1609733,1646,-310,12032,-85,-165,-298,0.00823,-0.02044,0.99748,-0.05496,0.14351,-0.13053,-1.1742,-0.47258,0.99772,-1.19516,-0.40975,0.003126,0.047728,0.018999,0.018999,0.460309,-0.00177,-0.010709,0.887692,-1.18282,-0.38479,125.18635
160973,1609743,1574,-324,12034,-87,-173,-298,0.00381,-0.0213,0.9976,-0.07023,0.08244,-0.13053,-1.22336,-0.21882,0.99783,-1.19642,-0.40576,0.003176,0.047384,0.019071,0.019071,0.460319,-0.001808,-0.010704,0.887687,-1.18432,-0.38069,125.18502
160974,1609753,1620,-356,11986,-90,-170,-298,0.00663,-0.02327,0.99475,-0.09313,0.10534,-0.13053,-1.33987,-0.38198,0.99504,-1.19967,-0.40481,0.003392,0.047349,0.016062,0.016062,0.460329,-0.001832,-0.010731,0.887682,-1.18828,-0.37969,125.18371
160975,1609763,1598,-270,12010,-98,-171,-302,0.00528,-0.01799,0.99617,-0.1542,0.09771,-0.16107,-1.03467,-0.30384,0.99635,-1.1983,-0.40253,0.003114,0.047182,0.017668,0.017668,0.460342,-0.001845,-0.010709,0.887675,-1.18678,-0.37725,125.18207
160976,1609773,1608,-308,12052,-101,-172,-300,0.0059,-0.02032,0.99867,-0.1771,0.09008,-0.1458,-1.16576,-0.33826,0.99889,-1.19942,-0.40084,0.00305,0.047062,0.019749,0.019749,0.460353,-0.001863,-0.010713,0.887669,-1.18812,-0.3756,125.18058
160977,1609783,1608,-264,12004,-100,-156,-296,0.0059,-0.01762,0.99582,-0.16947,0.21221,-0.11527,-1.01387,-0.33925,0.99599,-1.19792,-0.39816,0.002745,0.046965,0.017239,0.017239,0.460362,-0.001878,-0.010688,0.887665,-1.18637,-0.37279,125.17937
160978,1609793,1578,-322,11996,-96,-157,-296,0.00406,-0.02118,0.99534,-0.13893,0.20458,-0.11527,-1.21907,-0.23344,0.99558,-1.19967,-0.39385,0.002776,0.046707,0.01676,0.01676,0.460371,-0.001923,-0.010685,0.88766,-1.1884,-0.36803,125.17818
160979,1609803,1618,-264,11992,-97,-154,-296,0.00651,-0.01762,0.9951,-0.14656,0.22748,-0.11527,-1.0146,-0.37482,0.99528,-1.1981,-0.39176,0.002487,0.04668,0.016421,0.016421,0.460381,-0.001932,-0.010661,0.887655,-1.18646,-0.36592,125.17696
160980,1609813,1608,-316,12080,-96,-165,-305,0.0059,-0.02081,1.00033,-0.13893,0.14351,-0.18397,-1.19192,-0.3377,1.00057,-1.19936,-0.38973,0.002472,0.04658,0.019977,0.019977,0.460395,-0.001953,-0.010665,0.887648,-1.18794,-0.36396,125.17509
160981,1609823,1574,-318,12026,-100,-165,-303,0.00381,-0.02094,0.99712,-0.16947,0.14351,-0.1687,-1.2028,-0.21892,0.99735,-1.20111,-0.38558,0.002476,0.046279,0.018717,0.018717,0.460408,-0.001995,-0.010663,0.887641,-1.18992,-0.35967,125.17337
160982,1609833,1532,-318,12040,-92,-174,-299,0.00123,-0.02094,0.99796,-0.1084,0.07481,-0.13817,-1.2018,-0.0708,0.99818,-1.20221,-0.37921,0.002475,0.045704,0.019363,0.019363,0.460418,-0.00205,-0.010647,0.887636,-1.19123,-0.3532,125.17199
160983,1609843,1586,-280,12084,-91,-158,-295,0.00455,-0.0186,1.00057,-0.10076,0.19695,-0.10763,-1.06524,-0.26034,1.00075,-1.2005,-0.37536,0.002216,0.045484,0.019861,0.019861,0.460427,-0.002074,-0.01062,0.887632,-1.18972,-0.34939,125.17084
160984,1609853,1584,-272,12006,-95,-171,-297,0.00442,-0.01811,0.99594,-0.1313,0.09771,-0.1229,-1.04197,-0.25449,0.99611,-1.19906,-0.37275,0.001953,0.045286,0.017364,0.017364,0.460436,-0.002089,-0.010596,0.887627,-1.18811,-0.34657,125.16959
160985,1609863,1646,-320,12058,-91,-176,-298,0.00823,-0.02106,0.99903,-0.10076,0.05954,-0.13053,-1.20755,-0.47184,0.99928,-1.20024,-0.37458,0.001967,0.045473,0.019856,0.019856,0.460447,-0.00208,-0.010615,0.887621,-1.1895,-0.34851,125.16827
160986,1609873,1634,-252,12000,-94,-163,-299,0.00749,-0.01689,0.99558,-0.12366,0.15878,-0.13817,-0.97176,-0.43114,0.99575,-1.19761,-0.37442,0.0016,0.045565,0.016929,0.016929,0.460458,-0.002067,-0.010591,0.887616,-1.18645,-0.34857,125.16682
160987,1609883,1582,-296,12070,-96,-150,-302,0.0043,-0.01959,0.99974,-0.13893,0.25802,-0.16107,-1.12235,-0.24649,0.99994,-1.19748,-0.36979,0.001455,0.045328,0.019951,0.019951,0.460471,-0.002103,-0.010573,0.887609,-1.18655,-0.34399,125.16516
160988,1609893,1582,-280,12058,-98,-158,-300,0.0043,-0.0186,0.99903,-0.1542,0.19695,-0.1458,-1.06688,-0.24667,0.99921,-1.19642,-0.36586,0.001208,0.0451,0.019796,0.019796,0.460482,-0.00213,-0.010551,0.887604,-1.18569,-0.3401,125.16364
160989,1609903,1532,-286,11980,-97,-153,-297,0.00123,-0.01897,0.99439,-0.14656,0.23511,-0.1229,-1.09305,-0.07106,0.99457,-1.19628,-0.35944,0.001055,0.044673,0.015432,0.015432,0.460492,-0.002187,-0.010518,0.887599,-1.18535,-0.33255,125.16236
160990,1609913,1590,-288,12006,-94,-151,-303,0.00479,-0.0191,0.99594,-0.12366,0.25038,-0.1687,-1.09841,-0.27567,0.99613,-1.19581,-0.35597,0.000892,0.044539,0.017392,0.017392,0.460505,-0.002213,-0.0105,0.887592,-1.18486,-0.32896,125.16061
160991,1609923,1580,-270,12074,-101,-166,-301,0.00418,-0.01799,0.99998,-0.1771,0.13588,-0.15344,-1.03073,-0.23941,1.00015,-1.19426,-0.35274,0.000578,0.044321,0.019957,0.019957,0.460517,-0.002232,-0.010477,0.887586,-1.18354,-0.32584,125.15903
160992,1609933,1570,-282,12098,-100,-176,-305,0.00357,-0.01873,1.0014,-0.16947,0.05954,-0.18397,-1.07137,-0.20396,1.00158,-1.19353,-0.3497,0.000349,0.044047,0.019449,0.019449,0.460531,-0.002253,-0.010461,0.887579,-1.18298,-0.32285,125.15717
160993,1609943,1602,-300,12066,-95,-184,-298,0.00553,-0.01983,0.9995,-0.1313,-0.00153,-0.13053,-1.13668,-0.31688,0.99971,-1.19369,-0.3495,0.000239,0.043985,0.019888,0.019888,0.460541,-0.002256,-0.010463,0.887574,-1.18336,-0.32278,125.15585
160994,1609953,1598,-306,12012,-94,-180,-295,0.00528,-0.0202,0.99629,-0.12366,0.02901,-0.10763,-1.16149,-0.30379,0.99651,-1.19434,-0.34883,0.000183,0.043908,0.017754,0.017754,0.46055,-0.002264,-0.010467,0.887569,-1.18416,-0.32213,125.15478
160995,1609963,1590,-252,12014,-91,-185,-299,0.00479,-0.01689,0.99641,-0.10076,-0.00916,-0.13817,-0.97095,-0.27555,0.99657,-1.19135,-0.34805,-0.000195,0.043783,0.017823,0.017823,0.46056,-0.002257,-0.010439,0.887564,-1.18095,-0.32133,125.15336
160996,1609973,1586,-280,12038,-91,-193,-301,0.00455,-0.0186,0.99784,-0.10076,-0.07023,-0.15344,-1.06815,-0.26105,0.99802,-1.18997,-0.3475,-0.00042,0.043624,0.019158,0.019158,0.460572,-0.002256,-0.010427,0.887558,-1.1797,-0.32087,125.15182
160997,1609983,1624,-284,11998,-86,-192,-295,0.00688,-0.01885,0.99546,-0.0626,-0.0626,-0.10763,-1.08482,-0.39586,0.99566,-1.18882,-0.34935,-0.000588,0.043699,0.016782,0.016782,0.460581,-0.002235,-0.010426,0.887554,-1.17846,-0.32299,125.15077
160998,1609993,1552,-260,12034,-89,-184,-293,0.00246,-0.01738,0.9976,-0.0855,-0.00153,-0.09237,-0.99797,-0.14131,0.99775,-1.18603,-0.34585,-0.000931,0.043325,0.018968,0.018968,0.460588,-0.002252,-0.010391,0.88755,-1.17572,-0.31941,125.1498
160999,1610003,1592,-284,12092,-86,-193,-289,0.00492,-0.01885,1.00105,-0.0626,-0.07023,-0.06183,-1.07877,-0.28129,1.00124,-1.18454,-0.3457,-0.001131,0.043203,0.0196,0.0196,0.460593,-0.002247,-0.01038,0.887548,-1.1744,-0.31936,125.1492
161000,1610013,1602,-282,12006,-81,-198,-294,0.00553,-0.01873,0.99594,-0.02443,-0.1084,-0.1,-1.07725,-0.31803,0.99613,-1.18291,-0.34671,-0.001307,0.043155,0.017321,0.017321,0.4606,-0.002232,-0.010371,0.887544,-1.17273,-0.32044,125.14822
161001,1610023,1588,-280,12032,-88,-181,-290,0.00467,-0.0186,0.99748,-0.07786,0.02137,-0.06947,-1.06853,-0.2682,0.99766,-1.1815,-0.34544,-0.001513,0.043015,0.018878,0.018878,0.460606,-0.002236,-0.010356,0.887542,-1.17143,-0.3192,125.14751
161002,1610033,1616,-262,12018,-85,-185,-292,0.00639,-0.0175,0.99665,-0.05496,-0.00916,-0.08473,-1.00597,-0.36719,0.99682,-1.17885,-0.34635,-0.001814,0.043051,0.018086,0.018086,0.460613,-0.002217,-0.01034,0.887538,-1.1687,-0.32026,125.14664
161003,1610043,1594,-280,12022,-84,-180,-290,0.00504,-0.0186,0.99689,-0.04733,0.02901,-0.06947,-1.06917,-0.28951,0.99707,-1.17728,-0.34544,-0.002005,0.042952,0.01834,0.01834,0.460618,-0.002218,-0.010324,0.887536,-1.16719,-0.31937,125.14593
161004,1610053,1584,-272,12040,-88,-176,-291,0.00442,-0.01811,0.99796,-0.07786,0.05954,-0.0771,-1.03986,-0.25398,0.99813,-1.17539,-0.34352,-0.002256,0.042786,0.019221,0.019221,0.460624,-0.002226,-0.010303,0.887533,-1.16543,-0.31749,125.14513
161005,1610063,1616,-292,12014,-90,-177,-292,0.00639,-0.01934,0.99641,-0.09313,0.05191,-0.08473,-1.11199,-0.36726,0.99662,-1.17515,-0.34386,-0.002365,0.042827,0.017861,0.017861,0.460631,-0.002221,-0.010304,0.887529,-1.1653,-0.31797,125.14427
161006,1610073,1620,-344,12046,-91,-162,-291,0.00663,-0.02253,0.99831,-0.10076,0.16641,-0.0771,-1.29286,-0.38062,0.99859,-1.17841,-0.34336,-0.00215,0.042897,0.01949,0.01949,0.460637,-0.002239,-0.01033,0.887526,-1.16885,-0.31757,125.14346
161007,1610083,1578,-254,12016,-94,-155,-287,0.00406,-0.01701,0.99653,-0.12366,0.21985,-0.04656,-0.97789,-0.23318,0.99668,-1.17601,-0.33965,-0.002492,0.042713,0.017916,0.017916,0.460641,-0.002258,-0.010295,0.887524,-1.16631,-0.31372,125.14294
161008,1610093,1642,-326,12038,-96,-158,-293,0.00798,-0.02143,0.99784,-0.13893,0.19695,-0.09237,-1.23011,-0.45831,0.9981,-1.17838,-0.34041,-0.002396,0.042931,0.019177,0.019177,0.460648,-0.002262,-0.010319,0.88752,-1.16896,-0.31465,125.14199
161009,1610103,1640,-330,12064,-96,-180,-296,0.00786,-0.02167,0.99938,-0.13893,0.02901,-0.11527,-1.24227,-0.45056,0.99965,-1.18099,-0.34273,-0.002279,0.043137,0.019815,0.019815,0.460657,-0.002255,-0.010351,0.887515,-1.17181,-0.3171,125.14084
161010,1610113,1652,-278,12036,-97,-186,-299,0.0086,-0.01848,0.99772,-0.14656,-0.01679,-0.13817,-1.06124,-0.49362,0.99793,-1.18013,-0.34619,-0.002497,0.043407,0.01901,0.01901,0.460668,-0.002223,-0.01036,0.887509,-1.17107,-0.32081,125.13945
161011,1610123,1634,-276,12046,-99,-190,-299,0.00749,-0.01836,0.99831,-0.16183,-0.04733,-0.13817,-1.05357,-0.42995,0.99851,-1.17924,-0.3487,-0.002731,0.043559,0.019376,0.019376,0.460679,-0.002199,-0.010365,0.887503,-1.17033,-0.32349,125.13805
161012,1610133,1614,-270,12018,-97,-192,-297,0.00627,-0.01799,0.99665,-0.14656,-0.0626,-0.1229,-1.03417,-0.36013,0.99683,-1.17804,-0.34995,-0.002981,0.043577,0.018006,0.018006,0.460689,-0.002184,-0.010361,0.887498,-1.16909,-0.32487,125.13683
161013,1610143,1594,-304,12012,-99,-184,-291,0.00504,-0.02008,0.99629,-0.16183,-0.00153,-0.0771,-1.15444,-0.28968,0.99651,-1.17918,-0.34933,-0.003023,0.043475,0.017673,0.017673,0.460695,-0.002194,-0.010369,0.887495,-1.17042,-0.3242,125.13606
161014,1610153,1538,-308,12040,-93,-168,-288,0.0016,-0.02032,0.99796,-0.11603,0.12061,-0.0542,-1.1666,-0.09194,0.99816,-1.18005,-0.34364,-0.003048,0.04301,0.019167,0.019167,0.460699,-0.002244,-0.010353,0.887493,-1.1715,-0.31838,125.1355
161015,1610163,1602,-360,12022,-92,-164,-293,0.00553,-0.02351,0.99689,-0.1084,0.15115,-0.09237,-1.35109,-0.31769,0.99718,-1.18422,-0.3421,-0.002753,0.042967,0.018353,0.018353,0.460706,-0.002274,-0.010383,0.887489,-1.17614,-0.31687,125.13456
161016,1610173,1596,-300,12060,-93,-161,-297,0.00516,-0.01983,0.99914,-0.11603,0.17405,-0.1229,-1.13708,-0.29589,0.99935,-1.1844,-0.3399,-0.002843,0.042883,0.019705,0.019705,0.460716,-0.002292,-0.010378,0.887484,-1.17651,-0.31474,125.13329
161017,1610183,1638,-302,12034,-97,-162,-295,0.00774,-0.01995,0.9976,-0.14656,0.16641,-0.10763,-1.14588,-0.44434,0.99783,-1.18508,-0.34066,-0.002914,0.043072,0.018887,0.018887,0.460724,-0.002289,-0.010388,0.88748,-1.17736,-0.31568,125.13218
161018,1610193,1630,-320,11940,-97,-169,-294,0.00725,-0.02106,0.99201,-0.14656,0.11298,-0.1,-1.21608,-0.41848,0.99226,-1.18689,-0.34094,-0.002879,0.043165,0.012448,0.012448,0.460732,-0.002291,-0.010408,0.887475,-1.17955,-0.31651,125.13116
161019,1610203,1596,-278,12008,-98,-168,-297,0.00516,-0.01848,0.99605,-0.1542,0.12061,-0.1229,-1.06301,-0.29681,0.99624,-1.18621,-0.33941,-0.003086,0.043093,0.017448,0.017448,0.460742,-0.0023,-0.010396,0.88747,-1.17879,-0.31494,125.12989
161020,1610213,1616,-288,11980,-95,-174,-295,0.00639,-0.0191,0.99439,-0.1313,0.07481,-0.10763,-1.10012,-0.36801,0.99459,-1.18615,-0.33954,-0.003214,0.043135,0.015457,0.015457,0.46075,-0.002297,-0.010395,0.887466,-1.17857,-0.31524,125.12879
161021,1610223,1574,-312,12006,-99,-180,-290,0.00381,-0.02057,0.99594,-0.16183,0.02901,-0.06947,-1.18307,-0.21919,0.99616,-1.18765,-0.33758,-0.003222,0.042937,0.017416,0.017416,0.460756,-0.002321,-0.0104,0.887463,-1.18027,-0.31307,125.1281
161022,1610233,1622,-342,12098,-96,-175,-290,0.00676,-0.02241,1.0014,-0.13893,0.06718,-0.06947,-1.28186,-0.38647,1.00168,-1.19081,-0.33829,-0.003051,0.043027,0.019421,0.019421,0.460761,-0.002328,-0.01043,0.88746,-1.18368,-0.31388,125.12739
161023,1610243,1624,-276,12026,-94,-171,-285,0.00688,-0.01836,0.99712,-0.12366,0.09771,-0.0313,-1.05482,-0.39521,0.99732,-1.18946,-0.33882,-0.003293,0.043128,0.018619,0.018619,0.460764,-0.002318,-0.010422,0.887459,-1.18236,-0.31452,125.12704
161024,1610253,1596,-320,12014,-92,-163,-285,0.00516,-0.02106,0.99641,-0.1084,0.15878,-0.0313,-1.21071,-0.29669,0.99665,-1.19088,-0.33693,-0.003259,0.043059,0.017948,0.017948,0.460766,-0.00234,-0.010427,0.887457,-1.184,-0.31259,125.1267
161025,1610263,1590,-302,12050,-93,-178,-284,0.00479,-0.01995,0.99855,-0.11603,0.04427,-0.02366,-1.14479,-0.27494,0.99876,-1.19108,-0.3357,-0.003346,0.042944,0.019637,0.019637,0.460768,-0.002351,-0.010425,0.887456,-1.18438,-0.3114,125.12644
161026,1610273,1624,-294,12040,-94,-184,-285,0.00688,-0.01946,0.99796,-0.12366,-0.00153,-0.0313,-1.11731,-0.39487,0.99817,-1.19084,-0.33727,-0.003483,0.043051,0.019272,0.019272,0.460771,-0.002337,-0.010431,0.887455,-1.18428,-0.31309,125.12613
161027,1610283,1634,-324,12028,-85,-186,-282,0.00749,-0.0213,0.99724,-0.05496,-0.01679,-0.0084,-1.2238,-0.43038,0.9975,-1.19196,-0.33961,-0.003426,0.043215,0.018737,0.018737,0.460772,-0.002323,-0.010451,0.887454,-1.18561,-0.31559,125.12606
161028,1610293,1610,-314,11998,-79,-189,-281,0.00602,-0.02069,0.99546,-0.00916,-0.03969,-0.00076,-1.1907,-0.34641,0.99569,-1.19199,-0.34054,-0.003428,0.043224,0.01682,0.01682,0.460772,-0.002316,-0.010457,0.887454,-1.1858,-0.31659,125.12606
161029,1610303,1582,-314,12032,-83,-182,-284,0.0043,-0.02069,0.99748,-0.03969,0.01374,-0.02366,-1.18829,-0.24704,0.9977,-1.19228,-0.33905,-0.003435,0.043056,0.018929,0.018929,0.460773,-0.00233,-0.010454,0.887453,-1.18625,-0.31507,125.12582
161030,1610313,1570,-266,12062,-84,-177,-284,0.00357,-0.01775,0.99926,-0.04733,0.05191,-0.02366,-1.01741,-0.2044,0.99943,-1.18924,-0.3363,-0.003764,0.042804,0.01983,0.01983,0.460775,-0.002339,-0.010421,0.887453,-1.18334,-0.31235,125.12554
161031,1610323,1642,-294,12062,-81,-178,-282,0.00798,-0.01946,0.99926,-0.02443,0.04427,-0.0084,-1.11585,-0.45767,0.99948,-1.18799,-0.33869,-0.003902,0.043031,0.019812,0.019812,0.460776,-0.002316,-0.010422,0.887452,-1.18224,-0.31481,125.12546
161032,1610333,1574,-292,11958,-86,-180,-287,0.00381,-0.01934,0.99308,-0.0626,0.02901,-0.04656,-1.11572,-0.21982,0.99328,-1.18757,-0.33719,-0.003997,0.042876,0.013748,0.013748,0.46078,-0.002329,-0.010409,0.88745,-1.18159,-0.31271,125.12497
161033,1610343,1624,-262,12012,-90,-176,-282,0.00688,-0.0175,0.99629,-0.09313,0.05954,-0.0084,-1.00633,-0.39554,0.99647,-1.18523,-0.33806,-0.004303,0.042975,0.017756,0.017756,0.460781,-0.002311,-0.010393,0.88745,-1.17906,-0.31376,125.12486
161034,1610353,1616,-254,12030,-90,-177,-281,0.00639,-0.01701,0.99736,-0.09313,0.05191,-0.00076,-0.97707,-0.36693,0.99753,-1.18219,-0.33852,-0.004675,0.043026,0.018808,0.018808,0.460781,-0.002295,-0.010371,0.88745,-1.17597,-0.3143,125.12482
161035,1610363,1606,-276,12066,-88,-160,-282,0.00577,-0.01836,0.9995,-0.07786,0.18168,-0.0084,-1.05231,-0.33096,0.99969,-1.18032,-0.33701,-0.004921,0.043015,0.019905,0.019905,0.460782,-0.002299,-0.010352,0.88745,-1.17428,-0.31281,125.12467
161036,1610373,1628,-310,12058,-85,-170,-275,0.00712,-0.02044,0.99903,-0.05496,0.10534,0.04504,-1.17238,-0.40851,0.99926,-1.18065,-0.33781,-0.004937,0.04315,0.019786,0.019786,0.460779,-0.002295,-0.01036,0.887452,-1.17479,-0.31366,125.12511
161037,1610383,1644,-300,12070,-92,-164,-283,0.00811,-0.01983,0.99974,-0.1084,0.15115,-0.01603,-1.13641,-0.46448,0.99997,-1.18079,-0.33927,-0.005022,0.04339,0.019863,0.019863,0.460781,-0.002284,-0.010368,0.887451,-1.17511,-0.31517,125.12492
161038,1610393,1650,-302,11990,-96,-170,-281,0.00847,-0.01995,0.99498,-0.13893,0.10534,-0.00076,-1.1489,-0.4879,0.99522,-1.18159,-0.34107,-0.005073,0.043619,0.016206,0.016206,0.460781,-0.00227,-0.010384,0.88745,-1.17598,-0.3175,125.12487
161039,1610403,1586,-246,12016,-93,-190,-283,0.00455,-0.01652,0.99653,-0.11603,-0.04733,-0.01603,-0.94968,-0.26141,0.99668,-1.17852,-0.34053,-0.005469,0.043482,0.017934,0.017934,0.460782,-0.002261,-0.010356,0.88745,-1.17267,-0.31686,125.12471
161040,1610413,1628,-272,12064,-91,-195,-283,0.00712,-0.01811,0.99938,-0.10076,-0.0855,-0.01603,-1.03838,-0.40839,0.99957,-1.17667,-0.34315,-0.005734,0.043607,0.019847,0.019847,0.460784,-0.002234,-0.010354,0.887449,-1.17099,-0.31955,125.12454
161041,1610423,1564,-296,11984,-91,-199,-288,0.0032,-0.01959,0.99463,-0.10076,-0.11603,-0.0542,-1.12811,-0.18414,0.99483,-1.17684,-0.34222,-0.005807,0.043368,0.015726,0.015726,0.460788,-0.002246,-0.010349,0.887447,-1.17116,-0.31809,125.12404
161042,1610433,1650,-278,12012,-81,-201,-283,0.00847,-0.01848,0.99629,-0.02443,-0.1313,-0.01603,-1.06276,-0.48727,0.9965,-1.175,-0.34651,-0.006,0.043609,0.017769,0.017769,0.460789,-0.002202,-0.010353,0.887447,-1.16926,-0.32274,125.12388
161043,1610443,1636,-356,12120,-88,-187,-287,0.00762,-0.02327,1.00271,-0.07786,-0.02443,-0.04656,-1.32923,-0.43503,1.00301,-1.17853,-0.3488,-0.005734,0.043761,0.018291,0.018291,0.460793,-0.002199,-0.010394,0.887444,-1.17321,-0.32522,125.12344
161044,1610453,1628,-302,12078,-88,-178,-283,0.00712,-0.01995,1.00021,-0.07786,0.04427,-0.01603,-1.14289,-0.40803,1.00044,-1.17853,-0.34997,-0.005802,0.043873,0.019876,0.019876,0.460794,-0.00219,-0.0104,0.887443,-1.17338,-0.32644,125.12326
161045,1610463,1598,-244,12038,-89,-169,-279,0.00528,-0.0164,0.99784,-0.0855,0.11298,0.0145,-0.94139,-0.30334,0.99799,-1.17477,-0.3484,-0.006233,0.043789,0.019122,0.019122,0.460793,-0.002187,-0.010365,0.887444,-1.16961,-0.32485,125.12336
161046,1610473,1652,-292,11986,-88,-186,-277,0.0086,-0.01934,0.99475,-0.07786,-0.01679,0.02977,-1.11385,-0.49509,0.99497,-1.17451,-0.35133,-0.006326,0.04401,0.015922,0.015922,0.460791,-0.002159,-0.010376,0.887445,-1.16931,-0.32833,125.12366
161047,1610483,1640,-292,12028,-86,-186,-274,0.00786,-0.01934,0.99724,-0.0626,-0.01679,0.05267,-1.11107,-0.45155,0.99746,-1.17387,-0.3538,-0.006439,0.044186,0.01873,0.01873,0.460787,-0.002137,-0.010383,0.887447,-1.16878,-0.33094,125.12418
161048,1610493,1612,-282,12022,-92,-177,-277,0.00614,-0.01873,0.99689,-0.1084,0.05191,0.02977,-1.07622,-0.35298,0.99708,-1.17308,-0.35371,-0.006611,0.044185,0.01837,0.01837,0.460785,-0.002134,-0.010376,0.887448,-1.16803,-0.33085,125.12445
161049,1610503,1598,-286,12040,-85,-184,-275,0.00528,-0.01897,0.99796,-0.05496,-0.00153,0.04504,-1.08915,-0.30329,0.99815,-1.17194,-0.35319,-0.006765,0.044092,0.019257,0.019257,0.460782,-0.002134,-0.010366,0.88745,-1.16701,-0.33031,125.1249
161050,1610513,1590,-320,12004,-84,-178,-274,0.00479,-0.02106,0.99582,-0.04733,0.04427,0.05267,-1.21144,-0.27569,0.99605,-1.17302,-0.35185,-0.006701,0.043966,0.017247,0.017247,0.460778,-0.002152,-0.010371,0.887452,-1.16836,-0.32878,125.12542
161051,1610523,1652,-312,12012,-80,-168,-275,0.0086,-0.02057,0.99629,-0.01679,0.12061,0.04504,-1.18265,-0.49431,0.99654,-1.17329,-0.35364,-0.006685,0.044207,0.017816,0.017816,0.460774,-0.002138,-0.010383,0.887454,-1.16881,-0.33083,125.12585
161052,1610533,1520,-222,12010,-81,-167,-276,0.0005,-0.01505,0.99617,-0.02443,0.12824,0.0374,-0.86537,-0.02859,0.99629,-1.16806,-0.34711,-0.007197,0.043669,0.017543,0.017543,0.460772,-0.002171,-0.010309,0.887456,-1.16307,-0.32358,125.12617
161053,1610543,1600,-252,12086,-87,-166,-280,0.00541,-0.01689,1.00069,-0.07023,0.13588,0.00687,-0.9668,-0.3095,1.00085,-1.1647,-0.34546,-0.007575,0.0436,0.019789,0.019789,0.460771,-0.00217,-0.010277,0.887457,-1.15985,-0.32194,125.12618
161054,1610553,1598,-248,11964,-85,-173,-270,0.00528,-0.01664,0.99344,-0.05496,0.08244,0.08321,-0.95971,-0.30468,0.99359,-1.16225,-0.3445,-0.007851,0.043546,0.01419,0.01419,0.460765,-0.002166,-0.010247,0.88746,-1.15656,-0.32077,125.12699
161055,1610563,1618,-282,12052,-83,-175,-273,0.00651,-0.01873,0.99867,-0.03969,0.06718,0.06031,-1.0743,-0.37347,0.99887,-1.16083,-0.34484,-0.008016,0.0436,0.01973,0.01973,0.460761,-0.002158,-0.010239,0.887463,-1.15532,-0.32114,125.12756
161056,1610573,1626,-292,11992,-80,-166,-275,0.007,-0.01934,0.9951,-0.01679,0.13588,0.04504,-1.11345,-0.40307,0.99532,-1.16014,-0.34489,-0.00809,0.043692,0.016419,0.016419,0.460758,-0.002154,-0.010235,0.887464,-1.15467,-0.32137,125.12799
161057,1610583,1536,-262,12018,-81,-161,-274,0.00148,-0.0175,0.99665,-0.02443,0.17405,0.05267,-1.00597,-0.08501,0.9968,-1.1575,-0.33889,-0.008355,0.043248,0.018166,0.018166,0.460754,-0.002193,-0.010188,0.887467,-1.15197,-0.31494,125.12846
161058,1610593,1632,-288,12016,-89,-160,-275,0.00737,-0.0191,0.99653,-0.0855,0.18168,0.04504,-1.09776,-0.42366,0.99674,-1.15717,-0.33906,-0.008459,0.043395,0.018101,0.018101,0.46075,-0.002189,-0.010188,0.887469,-1.15176,-0.31527,125.12886
161059,1610603,1596,-266,11998,-85,-143,-279,0.00516,-0.01775,0.99546,-0.05496,0.31145,0.0145,-1.02129,-0.29699,0.99563,-1.15534,-0.33572,-0.008676,0.043332,0.01684,0.01684,0.46075,-0.002208,-0.010158,0.887469,-1.14975,-0.31179,125.12893
161060,1610613,1594,-318,12014,-89,-146,-285,0.00504,-0.02094,0.99641,-0.0855,0.28855,-0.0313,-1.20366,-0.28964,0.99664,-1.15697,-0.33248,-0.008595,0.043258,0.018026,0.018026,0.460752,-0.002241,-0.01016,0.887468,-1.15167,-0.30847,125.12858
161061,1610623,1622,-292,12014,-100,-133,-285,0.00676,-0.01934,0.99641,-0.16947,0.38779,-0.0313,-1.11199,-0.38843,0.99662,-1.15774,-0.3301,-0.008674,0.043359,0.018005,0.018005,0.460755,-0.002263,-0.010158,0.887466,-1.15257,-0.30619,125.12817
161062,1610633,1602,-280,12018,-98,-149,-287,0.00553,-0.0186,0.99665,-0.1542,0.26565,-0.04656,-1.06943,-0.3178,0.99684,-1.15756,-0.3277,-0.008829,0.043342,0.018235,0.018235,0.460759,-0.002281,-0.010147,0.887464,-1.15247,-0.30377,125.12765
161063,1610643,1600,-284,11954,-98,-161,-285,0.00541,-0.01885,0.99285,-0.1542,0.17405,-0.0313,-1.08768,-0.31193,0.99304,-1.15804,-0.32619,-0.008921,0.043323,0.013576,0.013576,0.460762,-0.002295,-0.010143,0.887463,-1.15277,-0.30219,125.12729
161064,1610653,1620,-308,12026,-98,-176,-280,0.00663,-0.02032,0.99712,-0.1542,0.05954,0.00687,-1.16757,-0.38109,0.99735,-1.15965,-0.32707,-0.008907,0.043421,0.01882,0.01882,0.460761,-0.002295,-0.010161,0.887463,-1.15461,-0.30316,125.12734
161065,1610663,1626,-332,12042,-95,-192,-286,0.007,-0.02179,0.99807,-0.1313,-0.0626,-0.03893,-1.25093,-0.40185,0.99834,-1.16263,-0.32957,-0.00874,0.043558,0.019568,0.019568,0.460764,-0.002287,-0.010197,0.887461,-1.15784,-0.30576,125.12698
161066,1610673,1590,-322,11986,-86,-199,-282,0.00479,-0.02118,0.99475,-0.0626,-0.11603,-0.0084,-1.2198,-0.27599,0.99498,-1.16408,-0.33028,-0.008653,0.043474,0.016101,0.016101,0.460765,-0.00229,-0.010213,0.887461,-1.15967,-0.30634,125.12692
161067,1610683,1576,-266,12032,-92,-191,-282,0.00393,-0.01775,0.99748,-0.1084,-0.05496,-0.0084,-1.01922,-0.22591,0.99765,-1.1623,-0.32925,-0.008917,0.043283,0.019075,0.019075,0.460765,-0.002292,-0.010196,0.887461,-1.15796,-0.3053,125.12684
161068,1610693,1588,-258,11958,-91,-186,-284,0.00467,-0.01726,0.99308,-0.10076,-0.01679,-0.02366,-0.99543,-0.26939,0.99324,-1.16089,-0.32901,-0.009137,0.043204,0.013883,0.013883,0.460767,-0.002287,-0.010177,0.88746,-1.15586,-0.30478,125.12659
161069,1610703,1592,-266,11954,-85,-177,-288,0.00492,-0.01775,0.99285,-0.05496,0.05191,-0.0542,-1.02398,-0.28361,0.99302,-1.15947,-0.32831,-0.009315,0.043145,0.013652,0.013652,0.460772,-0.002286,-0.010159,0.887458,-1.15389,-0.30387,125.12602
161070,1610713,1634,-314,12006,-89,-164,-281,0.00749,-0.02069,0.99594,-0.0855,0.15115,-0.00076,-1.19013,-0.43096,0.99618,-1.16076,-0.32907,-0.009265,0.04332,0.017727,0.017727,0.460772,-0.002285,-0.010175,0.887457,-1.15546,-0.30486,125.12599
161071,1610723,1596,-284,12058,-95,-152,-283,0.00516,-0.01885,0.99903,-0.1313,0.24275,-0.01603,-1.08095,-0.29593,0.99922,-1.16035,-0.32645,-0.009419,0.04326,0.020147,0.020147,0.460773,-0.002304,-0.010163,0.887457,-1.15528,-0.30226,125.12578
161072,1610733,1648,-290,12040,-97,-164,-278,0.00835,-0.01922,0.99796,-0.14656,0.15115,0.02214,-1.10323,-0.47941,0.99818,-1.16058,-0.32838,-0.009528,0.043546,0.019587,0.019587,0.460772,-0.002291,-0.010174,0.887457,-1.15571,-0.30428,125.12595
161073,1610743,1600,-278,12030,-93,-172,-285,0.00541,-0.01848,0.99736,-0.11603,0.09008,-0.0313,-1.06162,-0.31052,0.99755,-1.15973,-0.32759,-0.009709,0.043514,0.019071,0.019071,0.460775,-0.002294,-0.010166,0.887456,-1.155,-0.30351,125.12563
161074,1610753,1606,-314,12056,-97,-166,-285,0.00577,-0.02069,0.99891,-0.14656,0.13588,-0.0313,-1.18659,-0.33114,0.99914,-1.16161,-0.32675,-0.00966,0.043523,0.020028,0.020028,0.460777,-0.002308,-0.010179,0.887455,-1.1571,-0.30271,125.12528
161075,1610763,1644,-260,11948,-92,-171,-285,0.00811,-0.01738,0.99249,-0.1084,0.09771,-0.0313,-1.00311,-0.4679,0.99267,-1.1605,-0.32808,-0.009859,0.0437,0.013196,0.013196,0.46078,-0.002284,-0.010173,0.887453,-1.15526,-0.30487,125.12494
161076,1610773,1600,-322,12002,-95,-175,-283,0.00541,-0.02118,0.9957,-0.1313,0.06718,-0.01603,-1.21864,-0.31102,0.99594,-1.1627,-0.32755,-0.009766,0.043672,0.017416,0.017416,0.460781,-0.002299,-0.010191,0.887452,-1.15781,-0.30432,125.12476
161077,1610783,1632,-294,12028,-94,-189,-280,0.00737,-0.01946,0.99724,-0.12366,-0.03969,0.00687,-1.11811,-0.42335,0.99746,-1.16297,-0.3302,-0.009848,0.043843,0.019041,0.019041,0.460781,-0.002279,-0.010205,0.887452,-1.15826,-0.30709,125.12483
161078,1610793,1548,-334,12030,-97,-195,-288,0.00222,-0.02192,0.99736,-0.14656,-0.0855,-0.0542,-1.25887,-0.12723,0.99761,-1.16615,-0.32758,-0.009677,0.043473,0.019147,0.019147,0.460785,-0.002314,-0.010221,0.88745,-1.16173,-0.30437,125.12431
161079,1610803,1600,-328,11966,-92,-211,-291,0.00541,-0.02155,0.99356,-0.1084,-0.20763,-0.0771,-1.24247,-0.31169,0.99381,-1.16824,-0.32982,-0.009572,0.043447,0.014684,0.014684,0.46079,-0.002307,-0.010251,0.887447,-1.16436,-0.30661,125.1236
161080,1610813,1630,-326,12008,-87,-220,-288,0.00725,-0.02143,0.99605,-0.07023,-0.27634,-0.0542,-1.23231,-0.41678,0.99631,-1.16998,-0.33451,-0.009464,0.043589,0.017884,0.017884,0.460794,-0.002277,-0.010286,0.887444,-1.1664,-0.31155,125.12311
161081,1610823,1606,-314,11960,-83,-207,-283,0.00577,-0.02069,0.9932,-0.03969,-0.1771,-0.01603,-1.1934,-0.33304,0.99343,-1.17061,-0.33667,-0.009433,0.043584,0.014252,0.014252,0.460795,-0.002264,-0.010302,0.887444,-1.16732,-0.31374,125.123
161082,1610833,1580,-260,12006,-87,-201,-288,0.00418,-0.01738,0.99594,-0.07023,-0.1313,-0.0542,-0.99964,-0.24038,0.9961,-1.16818,-0.33668,-0.009721,0.04342,0.017701,0.017701,0.4608,-0.002255,-0.010282,0.887442,-1.16471,-0.31362,125.12247
161083,1610843,1590,-330,12030,-87,-197,-287,0.00479,-0.02167,0.99736,-0.07023,-0.10076,-0.04656,-1.24478,-0.27526,0.99761,-1.17025,-0.33691,-0.009582,0.043305,0.019269,0.019269,0.460803,-0.002262,-0.0103,0.88744,-1.167,-0.31387,125.12203
161084,1610853,1596,-306,12032,-82,-190,-287,0.00516,-0.0202,0.99748,-0.03206,-0.04733,-0.04656,-1.16011,-0.29638,0.9977,-1.17028,-0.33702,-0.009601,0.04323,0.019319,0.019319,0.460806,-0.002262,-0.010302,0.887438,-1.16719,-0.31401,125.12158
161085,1610863,1624,-308,12008,-82,-183,-285,0.00688,-0.02032,0.99605,-0.03206,0.00611,-0.0313,-1.16882,-0.39562,0.99629,-1.17047,-0.33843,-0.009604,0.043328,0.017878,0.017878,0.460809,-0.002251,-0.010311,0.887437,-1.16754,-0.31556,125.12127
161086,1610873,1614,-306,12038,-81,-165,-281,0.00627,-0.0202,0.99784,-0.02443,0.14351,-0.00076,-1.1597,-0.35968,0.99806,-1.17041,-0.33786,-0.009624,0.043369,0.019575,0.019575,0.460809,-0.002256,-0.01031,0.887437,-1.16762,-0.31501,125.12122
161087,1610883,1598,-340,12016,-86,-157,-283,0.00528,-0.02229,0.99653,-0.0626,0.20458,-0.01603,-1.28107,-0.3037,0.99679,-1.17296,-0.33565,-0.009432,0.043313,0.018409,0.018409,0.46081,-0.002285,-0.010323,0.887436,-1.1705,-0.31274,125.12103
161088,1610893,1600,-298,12058,-87,-156,-283,0.00541,-0.01971,0.99903,-0.07023,0.21221,-0.01603,-1.13018,-0.31,0.99923,-1.1727,-0.33348,-0.009515,0.043267,0.02014,0.02014,0.460812,-0.002301,-0.010313,0.887435,-1.17039,-0.31057,125.12082
161089,1610903,1578,-256,12044,-90,-147,-292,0.00406,-0.01713,0.99819,-0.09313,0.28092,-0.08473,-0.9833,-0.23279,0.99835,-1.16979,-0.32917,-0.00987,0.043084,0.019688,0.019688,0.460819,-0.002324,-0.010274,0.887432,-1.16759,-0.30623,125.1199
161090,1610913,1616,-288,12022,-100,-147,-287,0.00639,-0.0191,0.99689,-0.16947,0.28092,-0.04656,-1.09737,-0.36709,0.99709,-1.17001,-0.32754,-0.01,0.043155,0.018634,0.018634,0.460823,-0.002337,-0.01027,0.88743,-1.16788,-0.30463,125.11938
161091,1610923,1572,-290,12050,-98,-148,-288,0.00369,-0.01922,0.99855,-0.1542,0.27328,-0.0542,-1.10257,-0.21158,0.99874,-1.17008,-0.32298,-0.01013,0.042941,0.019861,0.019861,0.460827,-0.002374,-0.010253,0.887427,-1.16812,-0.30005,125.11877
161092,1610933,1594,-294,12014,-88,-162,-292,0.00504,-0.01946,0.99641,-0.07786,0.16641,-0.08473,-1.11904,-0.28965,0.99661,-1.16982,-0.32117,-0.010218,0.042886,0.0181,0.0181,0.460834,-0.002387,-0.010244,0.887424,-1.16792,-0.2982,125.11789
161093,1610943,1650,-308,12042,-98,-158,-293,0.00847,-0.02032,0.99807,-0.1542,0.19695,-0.09237,-1.16646,-0.48638,0.99832,-1.17117,-0.32289,-0.010227,0.043195,0.01959,0.01959,0.460842,-0.00238,-0.010263,0.88742,-1.16943,-0.3,125.11691
161094,1610953,1604,-288,12024,-106,-160,-288,0.00565,-0.0191,0.99701,-0.21527,0.18168,-0.0542,-1.09723,-0.32473,0.9972,-1.1718,-0.32157,-0.010362,0.043201,0.018674,0.018674,0.460846,-0.002393,-0.010263,0.887418,-1.17015,-0.29869,125.11633
161095,1610963,1618,-286,12000,-95,-172,-286,0.00651,-0.01897,0.99558,-0.1313,0.09008,-0.03893,-1.09175,-0.37463,0.99578,-1.17162,-0.32202,-0.010493,0.043288,0.017109,0.017109,0.460849,-0.002387,-0.010264,0.887416,-1.16992,-0.29929,125.11591
161096,1610973,1632,-264,11986,-93,-177,-293,0.00737,-0.01762,0.99475,-0.11603,0.05191,-0.09237,-1.01496,-0.42443,0.99493,-1.17014,-0.32358,-0.010733,0.043444,0.016068,0.016068,0.460857,-0.002365,-0.010257,0.887412,-1.16805,-0.30123,125.11497
161097,1610983,1616,-304,12038,-95,-188,-291,0.00639,-0.02008,0.99784,-0.1313,-0.03206,-0.0771,-1.15265,-0.36673,0.99806,-1.17098,-0.32516,-0.010768,0.043522,0.019437,0.019437,0.460863,-0.002356,-0.010272,0.887409,-1.16905,-0.30287,125.1142
161098,1610993,1616,-292,11998,-93,-191,-287,0.00639,-0.01934,0.99546,-0.11603,-0.05496,-0.04656,-1.11305,-0.36761,0.99567,-1.17103,-0.32685,-0.010862,0.043588,0.017002,0.017002,0.460866,-0.002342,-0.01028,0.887407,-1.16911,-0.3047,125.11374
161099,1611003,1596,-288,12000,-95,-190,-285,0.00516,-0.0191,0.99558,-0.1313,-0.04733,-0.0313,-1.09881,-0.29695,0.99578,-1.17098,-0.32723,-0.010982,0.043538,0.01715,0.01715,0.460869,-0.002339,-0.01028,0.887406,-1.16904,-0.30503,125.11343
161100,1611013,1618,-328,12052,-88,-182,-278,0.00651,-0.02155,0.99867,-0.07786,0.01374,0.02214,-1.23612,-0.37345,0.99892,-1.17293,-0.32844,-0.01086,0.043625,0.019941,0.019941,0.460867,-0.002338,-0.010302,0.887406,-1.17116,-0.30625,125.11366
161101,1611023,1632,-272,12008,-89,-176,-281,0.00737,-0.01811,0.99605,-0.0855,0.05954,-0.00076,-1.04185,-0.42387,0.99625,-1.17135,-0.32997,-0.011081,0.043785,0.017689,0.017689,0.460868,-0.002318,-0.010295,0.887406,-1.16947,-0.30798,125.1136
161102,1611033,1606,-332,12038,-81,-170,-280,0.00577,-0.02179,0.99784,-0.02443,0.10534,0.00687,-1.25123,-0.33149,0.99809,-1.17303,-0.3294,-0.010934,0.043789,0.019445,0.019445,0.460867,-0.00233,-0.010308,0.887406,-1.17134,-0.30739,125.11367
161103,1611043,1568,-324,12000,-84,-174,-282,0.00344,-0.0213,0.99558,-0.04733,0.07481,-0.0084,-1.22584,-0.19808,0.99581,-1.17429,-0.32684,-0.010849,0.043576,0.017164,0.017164,0.460868,-0.002359,-0.010308,0.887406,-1.17288,-0.3045,125.11359
161104,1611053,1604,-340,11990,-91,-173,-283,0.00565,-0.02229,0.99498,-0.10076,0.08244,-0.01603,-1.28306,-0.32537,0.99525,-1.17697,-0.32643,-0.01068,0.043575,0.016487,0.016487,0.460869,-0.002375,-0.010331,0.887405,-1.17605,-0.30408,125.11343
161105,1611063,1604,-294,12032,-89,-170,-284,0.00565,-0.01946,0.99748,-0.0855,0.10534,-0.02366,-1.11784,-0.32458,0.99769,-1.17657,-0.32579,-0.010789,0.043572,0.019158,0.019158,0.460871,-0.002379,-0.010326,0.887404,-1.17574,-0.30344,125.11315
161106,1611073,1588,-274,12026,-85,-180,-283,0.00467,-0.01824,0.99712,-0.05496,0.02901,-0.01603,-1.04778,-0.26829,0.9973,-1.17458,-0.32485,-0.011019,0.04347,0.0188,0.0188,0.460872,-0.002378,-0.010306,0.887404,-1.17375,-0.30246,125.11298
161107,1611083,1600,-330,11996,-85,-181,-280,0.00541,-0.02167,0.99534,-0.05496,0.02137,0.00687,-1.24731,-0.31113,0.99559,-1.17625,-0.32484,-0.010903,0.043447,0.016908,0.016908,0.460872,-0.002387,-0.010322,0.887404,-1.17574,-0.30241,125.11304
161108,1611093,1652,-310,12040,-92,-191,-278,0.0086,-0.02044,0.99796,-0.1084,-0.05496,0.02214,-1.17364,-0.49349,0.9982,-1.17715,-0.3291,-0.01091,0.043757,0.019532,0.019532,0.46087,-0.002357,-0.010347,0.887404,-1.17679,-0.30677,125.11327
161109,1611103,1660,-282,11992,-86,-202,-280,0.00909,-0.01873,0.9951,-0.0626,-0.13893,0.00687,-1.07815,-0.52318,0.99532,-1.17602,-0.33411,-0.011066,0.044059,0.016569,0.016569,0.46087,-0.002308,-0.01036,0.887404,-1.17548,-0.31239,125.11337
161110,1611113,1606,-260,12100,-80,-200,-279,0.00577,-0.01738,1.00152,-0.01679,-0.12366,0.0145,-0.99406,-0.3303,1.00169,-1.17251,-0.33568,-0.011404,0.044049,0.019605,0.019605,0.460869,-0.002282,-0.010339,0.887405,-1.17203,-0.31398,125.11351
161111,1611123,1612,-316,12042,-77,-192,-276,0.00614,-0.02081,0.99807,0.00611,-0.0626,0.0374,-1.19462,-0.35255,0.99831,-1.17277,-0.33706,-0.011363,0.044078,0.019575,0.019575,0.460866,-0.002273,-0.010348,0.887407,-1.17242,-0.31537,125.11391
161112,1611133,1586,-304,12080,-79,-210,-269,0.00455,-0.02008,1.00033,-0.00916,-0.2,0.09084,-1.14978,-0.2604,1.00054,-1.17229,-0.33791,-0.011406,0.043928,0.020035,0.020035,0.460859,-0.002265,-0.010349,0.88741,-1.17207,-0.31625,125.11486
161113,1611143,1624,-302,12038,-81,-218,-266,0.00688,-0.01995,0.99784,-0.02443,-0.26107,0.11374,-1.14561,-0.39491,0.99806,-1.1719,-0.34201,-0.011455,0.044027,0.019343,0.019343,0.46085,-0.002231,-0.010363,0.887415,-1.17179,-0.32041,125.11604
161114,1611153,1630,-284,12024,-77,-188,-271,0.00725,-0.01885,0.99701,0.00611,-0.03206,0.07557,-1.08314,-0.41641,0.99721,-1.17007,-0.34414,-0.011611,0.044157,0.018613,0.018613,0.460844,-0.002207,-0.010358,0.887418,-1.16998,-0.32262,125.11678
161115,1611163,1566,-260,12034,-87,-142,-273,0.00332,-0.01738,0.9976,-0.07023,0.31908,0.06031,-0.99797,-0.19064,0.99776,-1.16736,-0.33851,-0.011923,0.043884,0.019083,0.019083,0.46084,-0.002241,-0.010314,0.887421,-1.16726,-0.31679,125.1173
161116,1611173,1624,-288,12022,-91,-129,-276,0.00688,-0.0191,0.99689,-0.10076,0.41832,0.0374,-1.09737,-0.3953,0.99709,-1.16694,-0.33588,-0.012047,0.04399,0.018477,0.018477,0.460837,-0.00226,-0.0103,0.887422,-1.16688,-0.31415,125.11759
161117,1611183,1644,-340,11996,-92,-131,-276,0.00811,-0.02229,0.99534,-0.1084,0.40305,0.0374,-1.2826,-0.46651,0.99562,-1.16984,-0.33455,-0.011864,0.044204,0.016841,0.016841,0.460835,-0.002281,-0.010322,0.887423,-1.17024,-0.31311,125.11789
161118,1611193,1684,-228,12024,-100,-155,-276,0.01056,-0.01541,0.99701,-0.16947,0.21985,0.0374,-0.88579,-0.60683,0.99718,-1.16611,-0.33789,-0.012367,0.044686,0.018581,0.018581,0.460833,-0.002237,-0.010306,0.887424,-1.16629,-0.31673,125.11819
161119,1611203,1646,-328,11960,-101,-197,-275,0.00823,-0.02155,0.9932,-0.1771,-0.10076,0.04504,-1.24292,-0.4746,0.99347,-1.16882,-0.34125,-0.012266,0.044867,0.01412,0.01412,0.460829,-0.002219,-0.010347,0.887426,-1.16953,-0.32076,125.11866
161120,1611213,1550,-306,11962,-97,-213,-276,0.00234,-0.0202,0.99332,-0.14656,-0.2229,0.0374,-1.16497,-0.13483,0.99353,-1.17008,-0.34095,-0.012273,0.044585,0.014253,0.014253,0.460826,-0.002235,-0.010353,0.887427,-1.17091,-0.31941,125.11909
161121,1611223,1630,-262,12032,-84,-227,-272,0.00725,-0.0175,0.99748,-0.04733,-0.32977,0.06794,-1.00513,-0.41622,0.99766,-1.16727,-0.34606,-0.012573,0.044715,0.01915,0.01915,0.460821,-0.002183,-0.010352,0.88743,-1.16809,-0.32462,125.11982
161122,1611233,1594,-296,12030,-73,-208,-272,0.00504,-0.01959,0.99736,0.03664,-0.18473,0.06794,-1.12502,-0.28937,0.99757,-1.16598,-0.34724,-0.012649,0.044608,0.01905,0.01905,0.460815,-0.00217,-0.010347,0.887433,-1.16688,-0.32575,125.12053
161123,1611243,1618,-258,12028,-77,-204,-273,0.00651,-0.01726,0.99724,0.00611,-0.1542,0.06031,-0.99128,-0.37402,0.99741,-1.1625,-0.34969,-0.012961,0.044653,0.018898,0.018898,0.460811,-0.002136,-0.01033,0.887436,-1.16333,-0.32824,125.12115
161124,1611253,1630,-310,11992,-77,-199,-271,0.00725,-0.02044,0.9951,0.00611,-0.11603,0.07557,-1.177,-0.41719,0.99534,-1.16255,-0.35239,-0.012938,0.044756,0.016591,0.016591,0.460805,-0.002114,-0.010343,0.887439,-1.16354,-0.33112,125.12193
161125,1611263,1646,-294,12012,-80,-181,-267,0.00823,-0.01946,0.99629,-0.01679,0.02137,0.10611,-1.11918,-0.47315,0.99652,-1.16181,-0.3548,-0.013012,0.044962,0.018009,0.018009,0.460797,-0.002092,-0.010348,0.887443,-1.16284,-0.33369,125.12298
161126,1611273,1634,-302,12022,-74,-175,-268,0.00749,-0.01995,0.99689,0.02901,0.06718,0.09847,-1.1467,-0.43055,0.99711,-1.16111,-0.35599,-0.013038,0.045096,0.018632,0.018632,0.46079,-0.00208,-0.010348,0.887447,-1.16223,-0.33492,125.12395
161127,1611283,1598,-314,12008,-81,-171,-262,0.00528,-0.02069,0.99605,-0.02443,0.09771,0.14427,-1.18999,-0.30386,0.99628,-1.16174,-0.35455,-0.012989,0.045009,0.01774,0.01774,0.460778,-0.002095,-0.010348,0.887452,-1.16303,-0.3333,125.12537
161128,1611293,1608,-274,12056,-82,-179,-263,0.0059,-0.01824,0.99891,-0.03206,0.03664,0.13664,-1.04591,-0.3382,0.99909,-1.15961,-0.3543,-0.013209,0.044978,0.019986,0.019986,0.460768,-0.002089,-0.010331,0.887458,-1.16102,-0.33301,125.12672
161129,1611303,1646,-266,12044,-81,-170,-265,0.00823,-0.01775,0.99819,-0.02443,0.10534,0.12137,-1.0185,-0.47226,0.99839,-1.15695,-0.35602,-0.013471,0.045198,0.01961,0.01961,0.460759,-0.002066,-0.010318,0.887463,-1.15843,-0.33471,125.12789
161130,1611313,1616,-268,12012,-85,-163,-264,0.00639,-0.01787,0.99629,-0.05496,0.15878,0.12901,-1.02749,-0.36731,0.99647,-1.15504,-0.35511,-0.013691,0.045219,0.017899,0.017899,0.460749,-0.002065,-0.010298,0.887468,-1.1564,-0.33374,125.12914
161131,1611323,1632,-350,12132,-79,-162,-267,0.00737,-0.0229,1.00342,-0.00916,0.16641,0.10611,-1.30728,-0.42071,1.00371,-1.15769,-0.35508,-0.013436,0.045331,0.017698,0.017698,0.460741,-0.002077,-0.010322,0.887472,-1.15947,-0.33377,125.13019
161132,1611333,1634,-268,12054,-82,-157,-263,0.00749,-0.01787,0.99879,-0.03206,0.20458,0.13664,-1.02492,-0.42975,0.99898,-1.15523,-0.35501,-0.013686,0.045475,0.01989,0.01989,0.460731,-0.002068,-0.010303,0.887478,-1.15712,-0.33361,125.13148
161133,1611343,1608,-304,12028,-92,-160,-261,0.0059,-0.02008,0.99724,-0.1084,0.18168,0.15191,-1.15334,-0.33875,0.99746,-1.15613,-0.35336,-0.013692,0.045448,0.018869,0.018869,0.46072,-0.002086,-0.010304,0.887483,-1.15813,-0.33187,125.13297
161134,1611353,1610,-254,12016,-92,-161,-266,0.00602,-0.01701,0.99653,-0.1084,0.17405,0.11374,-0.97789,-0.34607,0.99669,-1.15383,-0.35197,-0.013999,0.045438,0.018106,0.018106,0.460711,-0.002087,-0.010279,0.887488,-1.15566,-0.33039,125.13406
161135,1611363,1646,-300,12064,-86,-166,-263,0.00823,-0.01983,0.99938,-0.0626,0.13588,0.13664,-1.13681,-0.47168,0.99961,-1.15397,-0.35348,-0.014032,0.045666,0.020018,0.020018,0.460701,-0.002077,-0.010287,0.887493,-1.15591,-0.33183,125.13538
161136,1611373,1640,-282,12000,-84,-169,-259,0.00786,-0.01873,0.99558,-0.04733,0.11298,0.16718,-1.07763,-0.45231,0.99579,-1.15299,-0.3545,-0.014156,0.045827,0.017045,0.017045,0.460688,-0.002063,-0.010284,0.8875,-1.15486,-0.33303,125.13702
161137,1611383,1602,-290,11962,-78,-167,-260,0.00553,-0.01922,0.99332,-0.00153,0.12824,0.15954,-1.10838,-0.31886,0.99352,-1.15223,-0.35318,-0.014215,0.04578,0.014196,0.014196,0.460676,-0.002072,-0.01027,0.887507,-1.15399,-0.33144,125.1386
161138,1611393,1632,-274,11994,-78,-155,-259,0.00737,-0.01824,0.99522,-0.00153,0.21985,0.16718,-1.04978,-0.42422,0.99542,-1.1504,-0.35266,-0.014377,0.045895,0.016679,0.016679,0.460664,-0.002067,-0.010253,0.887513,-1.15197,-0.33103,125.14021
161139,1611403,1592,-298,11988,-74,-148,-266,0.00492,-0.01971,0.99487,0.02901,0.27328,0.11374,-1.13491,-0.28303,0.99507,-1.14972,-0.34929,-0.0144,0.045791,0.016271,0.016271,0.460655,-0.002093,-0.010234,0.887518,-1.15136,-0.32734,125.14128
161140,1611413,1622,-288,12050,-84,-138,-270,0.00676,-0.0191,0.99855,-0.04733,0.34962,0.08321,-1.09554,-0.3876,0.99876,-1.14897,-0.34707,-0.014503,0.045869,0.019875,0.019875,0.460649,-0.002108,-0.010219,0.887521,-1.15072,-0.32503,125.14204
161141,1611423,1618,-270,12028,-84,-139,-271,0.00651,-0.01799,0.99724,-0.04733,0.34198,0.07557,-1.03356,-0.37401,0.99743,-1.14711,-0.34467,-0.01471,0.045923,0.018913,0.018913,0.460644,-0.00212,-0.010195,0.887524,-1.14887,-0.32257,125.1427
161142,1611433,1600,-290,12038,-92,-152,-272,0.00541,-0.01922,0.99784,-0.1084,0.24275,0.06794,-1.10336,-0.31037,0.99804,-1.14718,-0.34208,-0.014792,0.045863,0.019392,0.019392,0.460639,-0.002141,-0.010186,0.887527,-1.14905,-0.31988,125.14334
161143,1611443,1604,-280,12016,-90,-162,-277,0.00565,-0.0186,0.99653,-0.09313,0.16641,0.02977,-1.06955,-0.32489,0.99672,-1.14653,-0.34058,-0.014927,0.045836,0.018182,0.018182,0.460637,-0.002151,-0.010175,0.887528,-1.14841,-0.31831,125.14359
161144,1611453,1610,-308,11936,-84,-166,-271,0.00602,-0.02032,0.99178,-0.04733,0.13588,0.07557,-1.17386,-0.3477,0.992,-1.14719,-0.33978,-0.014896,0.045845,0.012355,0.012355,0.460631,-0.002161,-0.010179,0.887531,-1.14937,-0.31749,125.14434
161145,1611463,1610,-246,11972,-84,-172,-273,0.00602,-0.01652,0.99392,-0.04733,0.09008,0.06031,-0.95218,-0.34698,0.99407,-1.14458,-0.33945,-0.015174,0.045856,0.015034,0.015034,0.460627,-0.00215,-0.010151,0.887533,-1.14603,-0.31715,125.14488
161146,1611473,1596,-290,12016,-85,-173,-272,0.00516,-0.01922,0.99653,-0.05496,0.08244,0.06794,-1.10481,-0.29667,0.99673,-1.14424,-0.33831,-0.015243,0.045782,0.018348,0.018348,0.460621,-0.002159,-0.010144,0.887536,-1.14577,-0.31591,125.14555
161147,1611483,1682,-274,12058,-83,-174,-275,0.01044,-0.01824,0.99903,-0.03969,0.07481,0.04504,-1.04578,-0.59853,0.99925,-1.1425,-0.34327,-0.015432,0.04628,0.020152,0.020152,0.460618,-0.002114,-0.010152,0.887538,-1.14417,-0.3208,125.14597
161148,1611493,1612,-210,11990,-93,-169,-276,0.00614,-0.01431,0.99498,-0.11603,0.11298,0.0374,-0.82402,-0.35368,0.99511,-1.13827,-0.34278,-0.015927,0.046297,0.016379,0.016379,0.460616,-0.002098,-0.01011,0.88754,-1.13908,-0.3203,125.14629
161149,1611503,1610,-274,11990,-90,-167,-273,0.00602,-0.01824,0.99498,-0.09313,0.12824,0.06031,-1.05003,-0.3466,0.99517,-1.13757,-0.34204,-0.016066,0.046304,0.016486,0.016486,0.460612,-0.0021,-0.010101,0.887542,-1.13827,-0.31952,125.14685
161150,1611513,1602,-276,12016,-92,-157,-276,0.00553,-0.01836,0.99653,-0.1084,0.20458,0.0374,-1.05545,-0.31784,0.99671,-1.13697,-0.34004,-0.01621,0.046265,0.018344,0.018344,0.460609,-0.002114,-0.010088,0.887543,-1.13772,-0.31744,125.14718
161151,1611523,1618,-286,12022,-85,-153,-276,0.00651,-0.01897,0.99689,-0.05496,0.23511,0.0374,-1.09032,-0.37414,0.99709,-1.13648,-0.33883,-0.016294,0.046328,0.018722,0.018722,0.460606,-0.002122,-0.01008,0.887545,-1.13733,-0.3162,125.14749
161152,1611533,1576,-316,12040,-90,-156,-279,0.00393,-0.02081,0.99796,-0.09313,0.21221,0.0145,-1.19476,-0.22579,0.99818,-1.13838,-0.33498,-0.016187,0.046121,0.019626,0.019626,0.460605,-0.002161,-0.010081,0.887545,-1.13941,-0.31228,125.14762
161153,1611543,1562,-266,11988,-91,-149,-276,0.00307,-0.01775,0.99487,-0.10076,0.26565,0.0374,-1.0219,-0.17703,0.99503,-1.13731,-0.33025,-0.016368,0.045881,0.016287,0.016287,0.460603,-0.002197,-0.010049,0.887547,-1.13812,-0.30697,125.14792
161154,1611553,1578,-300,11976,-93,-154,-279,0.00406,-0.01983,0.99415,-0.11603,0.22748,0.0145,-1.14279,-0.23373,0.99436,-1.13838,-0.32697,-0.016361,0.045743,0.015448,0.015448,0.460602,-0.002231,-0.010044,0.887547,-1.13938,-0.30328,125.14803
161155,1611563,1600,-298,12024,-92,-162,-280,0.00541,-0.01971,0.99701,-0.1084,0.16641,0.00687,-1.13247,-0.31063,0.99721,-1.13917,-0.32548,-0.016373,0.045716,0.01888,0.01888,0.460601,-0.002246,-0.010045,0.887548,-1.14032,-0.30176,125.14806
161156,1611573,1614,-298,12040,-95,-167,-279,0.00627,-0.01971,0.99796,-0.1313,0.12824,0.0145,-1.13139,-0.35964,0.99817,-1.14014,-0.32534,-0.01639,0.045781,0.019652,0.019652,0.4606,-0.002252,-0.010054,0.887548,-1.14146,-0.30163,125.14818
161157,1611583,1554,-328,12050,-96,-179,-275,0.00258,-0.02155,0.99855,-0.13893,0.03664,0.04504,-1.23627,-0.1482,0.99879,-1.14326,-0.32189,-0.016211,0.045446,0.019974,0.019974,0.460596,-0.002292,-0.010065,0.88755,-1.14474,-0.29819,125.14863
161158,1611593,1626,-304,11948,-94,-190,-274,0.007,-0.02008,0.99249,-0.12366,-0.04733,0.05267,-1.15886,-0.40412,0.99272,-1.14453,-0.3239,-0.016192,0.045548,0.013308,0.013308,0.460592,-0.002278,-0.010087,0.887552,-1.14625,-0.30066,125.14916
161159,1611603,1594,-268,12046,-88,-191,-279,0.00504,-0.01787,0.99831,-0.07786,-0.05496,0.0145,-1.02541,-0.2891,0.99849,-1.14277,-0.3242,-0.016418,0.045481,0.01987,0.01987,0.460591,-0.002269,-0.010076,0.887552,-1.14462,-0.30098,125.1493
161160,1611613,1596,-274,11962,-92,-191,-276,0.00516,-0.01824,0.99332,-0.1084,-0.05496,0.0374,-1.05179,-0.29763,0.9935,-1.14237,-0.32481,-0.016542,0.045443,0.014345,0.014345,0.460588,-0.002263,-0.010072,0.887554,-1.14392,-0.30146,125.14968
161161,1611623,1604,-310,12056,-88,-187,-272,0.00565,-0.02044,0.99891,-0.07786,-0.02443,0.06794,-1.17252,-0.32411,0.99913,-1.14358,-0.32548,-0.016486,0.045441,0.020202,0.020202,0.460583,-0.002263,-0.010085,0.887556,-1.14528,-0.30214,125.15036
161162,1611633,1572,-254,12000,-83,-182,-267,0.00369,-0.01701,0.99558,-0.03969,0.01374,0.10611,-0.97882,-0.21222,0.99573,-1.14097,-0.32384,-0.016755,0.045255,0.01723,0.01723,0.460575,-0.002266,-0.010055,0.887561,-1.14241,-0.30021,125.15141
161163,1611643,1602,-308,12044,-84,-185,-269,0.00553,-0.02032,0.99819,-0.04733,-0.00916,0.09084,-1.16632,-0.3173,0.99842,-1.14177,-0.32424,-0.016708,0.045242,0.019832,0.019832,0.460568,-0.002267,-0.010065,0.887565,-1.14337,-0.30063,125.15231
161164,1611653,1616,-310,12042,-87,-175,-273,0.00639,-0.02044,0.99807,-0.07023,0.06718,0.06031,-1.1735,-0.36664,0.9983,-1.14292,-0.32486,-0.01665,0.045322,0.019727,0.019727,0.460563,-0.002267,-0.010077,0.887567,-1.14467,-0.30126,125.15292
161165,1611663,1588,-326,12006,-87,-175,-266,0.00467,-0.02143,0.99594,-0.07023,0.06718,0.11374,-1.23246,-0.2686,0.99618,-1.14504,-0.32365,-0.016501,0.045228,0.017712,0.017712,0.460554,-0.002287,-0.010091,0.887571,-1.14711,-0.29992,125.15404
161166,1611673,1590,-326,12018,-85,-175,-272,0.00479,-0.02143,0.99665,-0.05496,0.06718,0.06794,-1.23157,-0.27546,0.99689,-1.14701,-0.32254,-0.01635,0.045144,0.018501,0.018501,0.460549,-0.002305,-0.010103,0.887574,-1.14934,-0.29875,125.15473
161167,1611683,1588,-296,12022,-87,-182,-274,0.00467,-0.01959,0.99689,-0.07023,0.01374,0.05267,-1.12556,-0.26835,0.99709,-1.14714,-0.32184,-0.016389,0.045047,0.018692,0.018692,0.460545,-0.002312,-0.010102,0.887576,-1.14957,-0.298,125.15524
161168,1611693,1648,-290,12028,-87,-184,-274,0.00835,-0.01922,0.99724,-0.07023,-0.00153,0.05267,-1.10402,-0.47975,0.99746,-1.14685,-0.3253,-0.016467,0.045331,0.01903,0.01903,0.460541,-0.002283,-0.010115,0.887578,-1.14937,-0.30162,125.15576
161169,1611703,1624,-304,12040,-85,-187,-271,0.00688,-0.02008,0.99796,-0.05496,-0.02443,0.07557,-1.15252,-0.39487,0.99818,-1.14734,-0.32735,-0.016457,0.045458,0.019576,0.019576,0.460535,-0.002269,-0.010128,0.887581,-1.14999,-0.30371,125.15652
161170,1611713,1586,-320,11954,-87,-184,-267,0.00455,-0.02106,0.99285,-0.07023,-0.00153,0.10611,-1.21506,-0.26235,0.99308,-1.1488,-0.32692,-0.01637,0.045373,0.013734,0.013734,0.460527,-0.002283,-0.01014,0.887585,-1.15194,-0.30291,125.15759
161171,1611723,1542,-248,12022,-83,-185,-269,0.00185,-0.01664,0.99689,-0.03969,-0.00916,0.09084,-0.95639,-0.10615,0.99703,-1.14544,-0.32333,-0.01671,0.044982,0.01865,0.01865,0.46052,-0.002299,-0.010098,0.887589,-1.14846,-0.29908,125.15848
161172,1611733,1612,-310,12030,-88,-182,-271,0.00614,-0.02044,0.99736,-0.07786,0.01374,0.07557,-1.17434,-0.3528,0.99759,-1.14659,-0.32421,-0.016659,0.045035,0.019162,0.019162,0.460514,-0.002297,-0.010112,0.887592,-1.14976,-0.3,125.15923
161173,1611743,1662,-266,12048,-88,-174,-270,0.00921,-0.01775,0.99843,-0.07786,0.07481,0.08321,-1.01825,-0.52848,0.99863,-1.14464,-0.32797,-0.016901,0.04542,0.019864,0.019864,0.460508,-0.00226,-0.010113,0.887595,-1.14792,-0.3038,125.16003
161174,1611753,1658,-296,12048,-85,-163,-272,0.00897,-0.01959,0.99843,-0.05496,0.15878,0.06794,-1.12382,-0.51438,0.99866,-1.1446,-0.33056,-0.016941,0.045772,0.019845,0.019845,0.460503,-0.00224,-0.010124,0.887597,-1.14799,-0.3064,125.16068
161175,1611763,1628,-322,11994,-86,-161,-269,0.00712,-0.02118,0.99522,-0.0626,0.17405,0.09084,-1.21922,-0.41007,0.99547,-1.1463,-0.33063,-0.016823,0.045901,0.016787,0.016787,0.460497,-0.002246,-0.010141,0.887601,-1.15002,-0.30667,125.16157
161176,1611773,1606,-312,11980,-98,-168,-277,0.00577,-0.02057,0.99439,-0.1542,0.12061,0.02977,-1.18491,-0.33265,0.99462,-1.14826,-0.32993,-0.016768,0.045905,0.015724,0.015724,0.460494,-0.00226,-0.010155,0.887602,-1.15224,-0.30597,125.16183
161177,1611783,1586,-340,12014,-89,-172,-275,0.00455,-0.02229,0.99641,-0.0855,0.09008,0.04504,-1.28123,-0.26141,0.99667,-1.15136,-0.32825,-0.016539,0.045787,0.018247,0.018247,0.460491,-0.002288,-0.010174,0.887603,-1.15565,-0.30417,125.16229
161178,1611793,1644,-278,12010,-83,-190,-275,0.00811,-0.01848,0.99617,-0.03969,-0.04733,0.04504,-1.06288,-0.46616,0.99638,-1.15001,-0.33163,-0.01669,0.04602,0.01792,0.01792,0.460487,-0.002254,-0.010178,0.887605,-1.15421,-0.30784,125.16274
161179,1611803,1612,-284,11978,-85,-200,-275,0.00614,-0.01885,0.99427,-0.05496,-0.12366,0.04504,-1.08612,-0.35391,0.99447,-1.14939,-0.33365,-0.016785,0.04605,0.015563,0.015563,0.460484,-0.002234,-0.01018,0.887607,-1.15344,-0.30996,125.16322
161180,1611813,1664,-244,11994,-87,-201,-270,0.00933,-0.0164,0.99522,-0.07023,-0.1313,0.08321,-0.94387,-0.53726,0.9954,-1.14646,-0.33881,-0.017112,0.046371,0.016795,0.016795,0.460478,-0.002176,-0.010177,0.88761,-1.15005,-0.31571,125.16404
161181,1611823,1596,-306,12048,-88,-180,-264,0.00516,-0.0202,0.99843,-0.07786,0.02901,0.12901,-1.15901,-0.2961,0.99865,-1.14731,-0.33813,-0.01709,0.04629,0.019942,0.019942,0.460468,-0.002185,-0.010182,0.887615,-1.15101,-0.315,125.16534
161182,1611833,1586,-302,12018,-89,-173,-268,0.00455,-0.01995,0.99665,-0.0855,0.08244,0.09847,-1.14698,-0.26136,0.99686,-1.14797,-0.33636,-0.017092,0.046156,0.018474,0.018474,0.46046,-0.002203,-0.01018,0.887619,-1.15179,-0.31309,125.16629
161183,1611843,1590,-292,11986,-78,-158,-267,0.00479,-0.01934,0.99475,-0.00153,0.19695,0.10611,-1.11385,-0.276,0.99495,-1.14727,-0.3339,-0.017144,0.046066,0.016198,0.016198,0.460452,-0.002221,-0.010164,0.887624,-1.15107,-0.31038,125.16731
161184,1611853,1588,-276,11966,-91,-159,-273,0.00467,-0.01836,0.99356,-0.10076,0.18931,0.06031,-1.05861,-0.26925,0.99374,-1.14679,-0.33154,-0.017268,0.045978,0.014657,0.014657,0.460448,-0.002239,-0.010147,0.887626,-1.1503,-0.30768,125.16786
161185,1611863,1636,-316,11990,-89,-168,-270,0.00762,-0.02081,0.99498,-0.0855,0.12061,0.08321,-1.19833,-0.43843,0.99523,-1.14832,-0.33258,-0.017188,0.046148,0.016645,0.016645,0.460442,-0.002235,-0.010166,0.887629,-1.1521,-0.30902,125.16869
161186,1611873,1566,-268,12066,-87,-164,-274,0.00332,-0.01787,0.9995,-0.07023,0.15115,0.05267,-1.02419,-0.19028,0.99967,-1.14631,-0.32866,-0.017428,0.045876,0.020355,0.020355,0.460438,-0.002258,-0.010136,0.887631,-1.15025,-0.30512,125.16917
161187,1611883,1596,-336,11946,-83,-156,-269,0.00516,-0.02204,0.99237,-0.03969,0.21221,0.09084,-1.27228,-0.29789,0.99263,-1.1482,-0.32661,-0.01727,0.045839,0.013266,0.013266,0.460431,-0.002287,-0.010148,0.887635,-1.15297,-0.30284,125.17004
161188,1611893,1596,-324,11982,-83,-151,-271,0.00516,-0.0213,0.99451,-0.03969,0.25038,0.07557,-1.22716,-0.29726,0.99475,-1.14969,-0.32412,-0.01715,0.045798,0.016081,0.016081,0.460425,-0.002314,-0.010152,0.887638,-1.15481,-0.30022,125.17075
161189,1611903,1560,-290,12090,-91,-135,-276,0.00295,-0.01922,1.00093,-0.10076,0.37252,0.0374,-1.09996,-0.16893,1.00112,-1.14951,-0.31779,-0.017247,0.045507,0.020211,0.020211,0.460422,-0.002363,-0.010126,0.887639,-1.15472,-0.29386,125.17104
161190,1611913,1590,-302,12042,-96,-140,-283,0.00479,-0.01995,0.99807,-0.13893,0.33435,-0.01603,-1.14534,-0.27507,0.99829,-1.15062,-0.31411,-0.017257,0.045432,0.019838,0.019838,0.460424,-0.002397,-0.01012,0.887638,-1.15592,-0.29015,125.17081
161191,1611923,1538,-300,12026,-95,-146,-280,0.0016,-0.01983,0.99712,-0.1313,0.28855,0.00687,-1.13938,-0.09201,0.99732,-1.15152,-0.3075,-0.017279,0.045037,0.019034,0.019034,0.460423,-0.002454,-0.0101,0.887639,-1.15691,-0.28333,125.17083
161192,1611933,1582,-266,12054,-100,-146,-280,0.0043,-0.01775,0.99879,-0.16947,0.28855,0.00687,-1.01789,-0.24673,0.99895,-1.15032,-0.30389,-0.017537,0.044925,0.020132,0.020132,0.460423,-0.002477,-0.010077,0.887639,-1.15583,-0.27971,125.17083
161193,1611943,1608,-278,12008,-95,-157,-277,0.0059,-0.01848,0.99605,-0.1313,0.20458,0.02977,-1.06301,-0.33916,0.99624,-1.14988,-0.30295,-0.017686,0.044988,0.017838,0.017838,0.460421,-0.002482,-0.01007,0.88764,-1.15531,-0.27883,125.17106
161194,1611953,1638,-306,12018,-95,-161,-280,0.00774,-0.0202,0.99665,-0.1313,0.17405,0.00687,-1.16108,-0.44476,0.99688,-1.15121,-0.30431,-0.017669,0.045239,0.018542,0.018542,0.460421,-0.002476,-0.010087,0.88764,-1.15674,-0.28038,125.1711
161195,1611963,1620,-270,12030,-94,-169,-278,0.00663,-0.01799,0.99736,-0.12366,0.11298,0.02214,-1.03344,-0.38102,0.99755,-1.14999,-0.30512,-0.017884,0.045379,0.019164,0.019164,0.460419,-0.002464,-0.010081,0.887641,-1.15552,-0.28124,125.17129
161196,1611973,1596,-276,11992,-96,-173,-275,0.00516,-0.01836,0.9951,-0.13893,0.08244,0.04504,-1.05696,-0.2971,0.99529,-1.14963,-0.30462,-0.018033,0.045367,0.016647,0.016647,0.460416,-0.002466,-0.010075,0.887643,-1.15499,-0.28072,125.17171
161197,1611983,1552,-314,12012,-93,-190,-279,0.00246,-0.02069,0.99629,-0.11603,-0.04733,0.0145,-1.1897,-0.14149,0.99651,-1.15132,-0.30257,-0.017966,0.045086,0.018134,0.018134,0.460415,-0.002491,-0.01008,0.887643,-1.15683,-0.27844,125.17188
161198,1611993,1546,-294,11994,-95,-179,-277,0.00209,-0.01946,0.99522,-0.1313,0.03664,0.02977,-1.12038,-0.12045,0.99542,-1.15191,-0.29959,-0.018017,0.044795,0.016828,0.016828,0.460412,-0.00252,-0.010071,0.887645,-1.15743,-0.27497,125.17216
161199,1612003,1578,-316,12038,-94,-175,-275,0.00406,-0.02081,0.99784,-0.12366,0.06718,0.04504,-1.1949,-0.23286,0.99806,-1.15379,-0.29806,-0.017939,0.044672,0.019596,0.019596,0.460409,-0.00254,-0.01008,0.887646,-1.15942,-0.27345,125.1726
161200,1612013,1604,-258,12004,-91,-173,-274,0.00565,-0.01726,0.99582,-0.10076,0.08244,0.05267,-0.9927,-0.32513,0.99598,-1.15178,-0.29816,-0.018207,0.044717,0.017514,0.017514,0.460405,-0.002529,-0.010063,0.887648,-1.15715,-0.27363,125.1731
161201,1612023,1602,-310,12004,-94,-171,-273,0.00553,-0.02044,0.99582,-0.12366,0.09771,0.06031,-1.17616,-0.31805,0.99604,-1.15325,-0.29799,-0.018169,0.044751,0.017593,0.017593,0.4604,-0.002537,-0.010075,0.887651,-1.15876,-0.27352,125.17368
161202,1612033,1590,-286,11974,-93,-175,-272,0.00479,-0.01897,0.99403,-0.11603,0.06718,0.06794,-1.09344,-0.2762,0.99423,-1.1533,-0.29744,-0.018257,0.04472,0.015304,0.015304,0.460395,-0.002541,-0.010072,0.887653,-1.15866,-0.27289,125.17435
161203,1612043,1642,-322,12014,-83,-181,-281,0.00798,-0.02118,0.99641,-0.03969,0.02137,-0.00076,-1.21777,-0.45897,0.99667,-1.15469,-0.30063,-0.018145,0.045,0.018357,0.018357,0.460395,-0.002521,-0.010098,0.887653,-1.16023,-0.27635,125.17434
161204,1612053,1644,-258,12044,-83,-183,-276,0.00811,-0.01726,0.99819,-0.03969,0.00611,0.0374,-0.99034,-0.46523,0.99838,-1.15164,-0.30428,-0.018454,0.045309,0.019832,0.019832,0.460393,-0.00248,-0.01009,0.887654,-1.15724,-0.28005,125.17469
161205,1612063,1574,-264,11992,-86,-176,-273,0.00381,-0.01762,0.9951,-0.0626,0.05954,0.06031,-1.0146,-0.21938,0.99527,-1.14979,-0.30272,-0.018671,0.045175,0.016652,0.016652,0.460388,-0.002485,-0.010066,0.887657,-1.15508,-0.27826,125.17527
161206,1612073,1624,-340,11958,-85,-172,-273,0.00688,-0.02229,0.99308,-0.05496,0.09008,0.06031,-1.28552,-0.39678,0.99336,-1.15208,-0.30362,-0.018489,0.045302,0.014196,0.014196,0.460384,-0.002487,-0.010095,0.887659,-1.15813,-0.27962,125.17587
161207,1612083,1598,-288,11964,-92,-169,-275,0.00528,-0.0191,0.99344,-0.1084,0.11298,0.04504,-1.10117,-0.30467,0.99364,-1.15222,-0.30297,-0.01856,0.045304,0.014613,0.014613,0.460381,-0.002492,-0.010092,0.887661,-1.15812,-0.27896,125.17631
161208,1612093,1604,-278,11976,-86,-189,-274,0.00565,-0.01848,0.99415,-0.0626,-0.03969,0.05267,-1.06504,-0.32567,0.99434,-1.1513,-0.30416,-0.01869,0.045337,0.015584,0.015584,0.460377,-0.002477,-0.010088,0.887663,-1.15694,-0.28025,125.17681
161209,1612103,1608,-286,11998,-91,-187,-272,0.0059,-0.01897,0.99546,-0.10076,-0.02443,0.06794,-1.09188,-0.33936,0.99566,-1.15107,-0.30545,-0.018788,0.045393,0.01732,0.01732,0.460371,-0.002465,-0.010092,0.887666,-1.15668,-0.28164,125.17749
161210,1612113,1586,-316,11966,-94,-173,-269,0.00455,-0.02081,0.99356,-0.12366,0.08244,0.09084,-1.20005,-0.26217,0.99379,-1.15284,-0.30444,-0.018721,0.045333,0.014896,0.014896,0.460364,-0.002483,-0.010103,0.887669,-1.15875,-0.28042,125.17838
161211,1612123,1596,-290,12012,-90,-186,-267,0.00516,-0.01922,0.99629,-0.09313,-0.01679,0.10611,-1.10507,-0.29674,0.99649,-1.15269,-0.30491,-0.018805,0.045318,0.01837,0.01837,0.460356,-0.002479,-0.010104,0.887673,-1.15863,-0.28089,125.17944
161212,1612133,1582,-290,12012,-80,-201,-270,0.0043,-0.01922,0.99629,-0.01679,-0.1313,0.08321,-1.10507,-0.24734,0.99649,-1.1518,-0.30559,-0.018888,0.045215,0.018354,0.018354,0.46035,-0.00247,-0.0101,0.887677,-1.15774,-0.28152,125.18029
161213,1612143,1620,-312,11972,-91,-196,-273,0.00663,-0.02057,0.99392,-0.10076,-0.09313,0.06031,-1.18548,-0.38232,0.99415,-1.15312,-0.30813,-0.01884,0.045325,0.015399,0.015399,0.460345,-0.002454,-0.010123,0.887679,-1.15929,-0.28439,125.18092
161214,1612153,1572,-298,12042,-92,-193,-268,0.00369,-0.01971,0.99807,-0.1084,-0.07023,0.09847,-1.13126,-0.21168,0.99828,-1.15356,-0.30733,-0.018883,0.04514,0.020025,0.020025,0.460337,-0.002462,-0.010124,0.887683,-1.15982,-0.28363,125.18192
161215,1612163,1596,-316,12018,-88,-190,-270,0.00516,-0.02081,0.99665,-0.07786,-0.04733,0.08321,-1.19633,-0.29662,0.99688,-1.15494,-0.30804,-0.018808,0.045119,0.018771,0.018771,0.460331,-0.002462,-0.010139,0.887686,-1.16133,-0.28434,125.18277
161216,1612173,1560,-260,12020,-90,-193,-265,0.00295,-0.01738,0.99677,-0.09313,-0.07023,0.12137,-0.9988,-0.16964,0.99692,-1.15274,-0.30657,-0.019087,0.044871,0.018798,0.018798,0.460321,-0.002466,-0.010115,0.887691,-1.15904,-0.28274,125.18398
161217,1612183,1600,-294,12066,-80,-187,-262,0.00541,-0.01946,0.9995,-0.01679,-0.02443,0.14427,-1.11559,-0.30985,0.9997,-1.15195,-0.30731,-0.019159,0.044876,0.020502,0.020502,0.46031,-0.002457,-0.010112,0.887697,-1.15835,-0.2835,125.18543
161218,1612193,1610,-270,12046,-85,-183,-262,0.00602,-0.01799,0.99831,-0.05496,0.00611,0.14427,-1.03245,-0.34544,0.99849,-1.14991,-0.30846,-0.019386,0.044948,0.02002,0.02002,0.460299,-0.00244,-0.010102,0.887703,-1.15639,-0.28465,125.18685
161219,1612203,1594,-272,12058,-91,-191,-261,0.00504,-0.01811,0.99903,-0.10076,-0.05496,0.15191,-1.03875,-0.2889,0.9992,-1.14845,-0.30904,-0.019601,0.044908,0.020295,0.020295,0.460287,-0.00243,-0.010094,0.887709,-1.15506,-0.28525,125.18837
161220,1612213,1590,-308,12042,-92,-189,-265,0.00479,-0.02032,0.99807,-0.1084,-0.03969,0.12137,-1.16646,-0.27507,0.99829,-1.14968,-0.3092,-0.019569,0.044843,0.019807,0.019807,0.460278,-0.002434,-0.010105,0.887714,-1.15638,-0.28542,125.1896
161221,1612223,1596,-272,11942,-83,-207,-261,0.00516,-0.01811,0.99213,-0.03969,-0.1771,0.15191,-1.04596,-0.29799,0.99231,-1.14854,-0.31124,-0.019696,0.044827,0.012877,0.012877,0.460266,-0.002411,-0.0101,0.88772,-1.15469,-0.2874,125.19112
161222,1612233,1608,-302,12044,-73,-218,-261,0.0059,-0.01995,0.99819,0.03664,-0.26107,0.15191,-1.1452,-0.33843,0.99841,-1.14792,-0.31478,-0.019701,0.044872,0.019942,0.019942,0.460254,-0.002381,-0.01011,0.887726,-1.15415,-0.291,125.19273
161223,1612243,1616,-268,12068,-73,-208,-253,0.00639,-0.01787,0.99962,0.03664,-0.18473,0.21298,-1.02407,-0.36609,0.9998,-1.14485,-0.31808,-0.019939,0.044967,0.020386,0.020386,0.460238,-0.002344,-0.010101,0.887735,-1.15119,-0.2943,125.19487
161224,1612253,1634,-302,12038,-76,-206,-253,0.00749,-0.01995,0.99784,0.01374,-0.16947,0.21298,-1.14561,-0.43014,0.99806,-1.14453,-0.32238,-0.019937,0.045171,0.019624,0.019624,0.460221,-0.002309,-0.010116,0.887744,-1.15095,-0.29866,125.19701
161225,1612263,1642,-254,12004,-72,-210,-253,0.00798,-0.01701,0.99582,0.04427,-0.2,0.21298,-0.97859,-0.45928,0.99599,-1.14099,-0.32719,-0.020212,0.045394,0.017551,0.017551,0.460205,-0.002253,-0.010107,0.887752,-1.14713,-0.30378,125.19917
161226,1612273,1636,-326,12038,-71,-193,-252,0.00762,-0.02143,0.99784,0.05191,-0.07023,0.22061,-1.23011,-0.43717,0.9981,-1.14203,-0.33048,-0.020045,0.045596,0.019621,0.019621,0.460188,-0.002232,-0.01013,0.887761,-1.14828,-0.30709,125.20142
161227,1612283,1620,-300,12044,-62,-161,-247,0.00663,-0.01983,0.99819,0.12061,0.17405,0.25878,-1.13816,-0.38069,0.99841,-1.14057,-0.33022,-0.020049,0.045693,0.019796,0.019796,0.460168,-0.002229,-0.010117,0.887771,-1.14688,-0.30677,125.20396
161228,1612293,1570,-276,12000,-69,-124,-257,0.00357,-0.01836,0.99558,0.06718,0.45649,0.18244,-1.05646,-0.20515,0.99575,-1.13827,-0.32403,-0.020185,0.045496,0.01721,0.01721,0.460155,-0.00227,-0.010072,0.887779,-1.14444,-0.30017,125.20567
161229,1612303,1650,-288,11976,-72,-116,-254,0.00847,-0.0191,0.99415,0.04427,0.51756,0.20534,-1.10038,-0.48831,0.99437,-1.13705,-0.32192,-0.02024,0.045743,0.015466,0.015466,0.460139,-0.002277,-0.010056,0.887787,-1.14316,-0.29861,125.20763
161230,1612313,1648,-246,11984,-76,-134,-252,0.00835,-0.01652,0.99463,0.01374,0.38015,0.22061,-0.9515,-0.48104,0.9948,-1.13373,-0.32119,-0.020521,0.04599,0.016061,0.016061,0.460123,-0.002263,-0.010025,0.887796,-1.1393,-0.29831,125.20973
161231,1612323,1690,-294,12054,-83,-152,-256,0.01093,-0.01946,0.99879,-0.03969,0.24275,0.19008,-1.11638,-0.62682,0.99904,-1.13357,-0.32542,-0.020555,0.046577,0.020169,0.020169,0.460109,-0.002231,-0.010041,0.887803,-1.13925,-0.30241,125.21159
161232,1612333,1632,-258,12020,-89,-153,-259,0.00737,-0.01726,0.99677,-0.0855,0.23511,0.16718,-0.99175,-0.42357,0.99694,-1.13157,-0.3254,-0.020805,0.046753,0.018605,0.018605,0.460097,-0.002223,-0.010025,0.88781,-1.13719,-0.30243,125.21319
161233,1612343,1610,-264,12042,-93,-161,-251,0.00602,-0.01762,0.99807,-0.11603,0.17405,0.22824,-1.01158,-0.34553,0.99825,-1.13014,-0.32455,-0.021031,0.046793,0.019702,0.019702,0.460079,-0.002224,-0.010011,0.887819,-1.13585,-0.3015,125.21543
161234,1612353,1596,-336,12060,-92,-158,-257,0.00516,-0.02204,0.99914,-0.1084,0.19695,0.18244,-1.26366,-0.29587,0.9994,-1.13369,-0.3225,-0.020778,0.046741,0.020189,0.020189,0.460065,-0.002255,-0.010031,0.887826,-1.1395,-0.29939,125.21723
161235,1612363,1584,-270,12038,-85,-162,-252,0.00442,-0.01799,0.99784,-0.05496,0.16641,0.22061,-1.03294,-0.25401,0.99801,-1.13207,-0.31999,-0.020964,0.046617,0.01946,0.01946,0.460048,-0.002269,-0.010008,0.887835,-1.13794,-0.29677,125.21939
161236,1612373,1626,-352,12022,-90,-180,-251,0.007,-0.02302,0.99689,-0.09313,0.02901,0.22824,-1.3229,-0.40232,0.99718,-1.13635,-0.3217,-0.020627,0.046763,0.018725,0.018725,0.46003,-0.002274,-0.010051,0.887843,-1.14255,-0.29853,125.22169
161237,1612383,1630,-254,11926,-88,-189,-257,0.00725,-0.01701,0.99118,-0.07786,-0.03969,0.18244,-0.98316,-0.41887,0.99135,-1.13513,-0.32369,-0.020796,0.046869,0.011646,0.011646,0.460017,-0.002245,-0.010045,0.887851,-1.14038,-0.30113,125.2235
161238,1612393,1688,-320,12082,-82,-186,-256,0.01081,-0.02106,1.00045,-0.03206,-0.01679,0.19008,-1.20583,-0.61873,1.00073,-1.13667,-0.33027,-0.020661,0.047432,0.020196,0.020196,0.460002,-0.002201,-0.010084,0.887858,-1.14202,-0.30761,125.22541
161239,1612403,1608,-314,12082,-79,-184,-253,0.0059,-0.02069,1.00045,-0.00916,-0.00153,0.21298,-1.18476,-0.33766,1.00068,-1.13753,-0.3309,-0.020569,0.047445,0.020165,0.020165,0.459986,-0.0022,-0.010093,0.887866,-1.14297,-0.30818,125.22756
161240,1612413,1650,-306,12074,-76,-191,-245,0.00847,-0.0202,0.99998,0.01374,-0.05496,0.27405,-1.15721,-0.48546,1.00022,-1.13759,-0.33503,-0.020531,0.047739,0.020205,0.020205,0.459965,-0.002169,-0.010111,0.887877,-1.14313,-0.31222,125.2303
161241,1612423,1612,-290,12028,-76,-186,-247,0.00614,-0.01922,0.99724,0.01374,-0.01679,0.25878,-1.10402,-0.35286,0.99745,-1.13661,-0.336,-0.020591,0.047769,0.01896,0.01896,0.459945,-0.002158,-0.010108,0.887887,-1.14223,-0.31315,125.23289
161242,1612433,1608,-284,11968,-69,-177,-249,0.0059,-0.01885,0.99368,0.06718,0.05191,0.24351,-1.08677,-0.33997,0.99387,-1.13501,-0.33602,-0.020659,0.047775,0.014735,0.014735,0.459926,-0.002151,-0.010094,0.887897,-1.14051,-0.3131,125.23531
161243,1612443,1642,-292,11996,-69,-169,-247,0.00798,-0.01934,0.99534,0.06718,0.11298,0.25878,-1.11319,-0.45948,0.99556,-1.13378,-0.33747,-0.020693,0.047974,0.016948,0.016948,0.459906,-0.002133,-0.010092,0.887908,-1.13931,-0.31479,125.23788
161244,1612453,1608,-270,11968,-75,-162,-246,0.0059,-0.01799,0.99368,0.02137,0.16641,0.26641,-1.03727,-0.33998,0.99386,-1.13194,-0.33634,-0.020827,0.047979,0.014779,0.014779,0.459886,-0.002134,-0.01007,0.887918,-1.13715,-0.31356,125.24048
161245,1612463,1600,-310,12090,-76,-163,-249,0.00541,-0.02044,1.00093,0.01374,0.15878,0.24351,-1.17016,-0.30941,1.00115,-1.13237,-0.33471,-0.020754,0.04793,0.020045,0.020045,0.459867,-0.002149,-0.010067,0.887928,-1.13768,-0.31184,125.2429
161246,1612473,1618,-260,11990,-77,-166,-252,0.00651,-0.01738,0.99498,0.00611,0.13588,0.22061,-1.00059,-0.37487,0.99516,-1.12993,-0.33451,-0.020959,0.047994,0.016478,0.016478,0.45985,-0.002139,-0.010045,0.887937,-1.13495,-0.31167,125.24506
161247,1612483,1586,-276,12062,-76,-161,-251,0.00455,-0.01836,0.99926,0.01374,0.17405,0.22824,-1.05257,-0.26068,0.99944,-1.12803,-0.33178,-0.021106,0.047855,0.020232,0.020232,0.459833,-0.002154,-0.010021,0.887946,-1.13318,-0.30886,125.24731
161248,1612493,1688,-320,12048,-80,-150,-257,0.01081,-0.02106,0.99843,-0.01679,0.25802,0.18244,-1.20827,-0.61998,0.99871,-1.12958,-0.33546,-0.020955,0.048403,0.019925,0.019925,0.459819,-0.002132,-0.010048,0.887953,-1.13486,-0.31246,125.24908
161249,1612503,1606,-312,12004,-93,-148,-263,0.00577,-0.02057,0.99582,-0.11603,0.27328,0.13664,-1.18321,-0.33217,0.99605,-1.13146,-0.3332,-0.020868,0.048401,0.017526,0.017526,0.459809,-0.002159,-0.010055,0.887958,-1.13698,-0.31009,125.2504
161250,1612513,1618,-274,12060,-85,-158,-258,0.00651,-0.01824,0.99914,-0.05496,0.19695,0.17481,-1.04566,-0.3733,0.99933,-1.13006,-0.33255,-0.021032,0.04848,0.020132,0.020132,0.459796,-0.00216,-0.010042,0.887965,-1.13571,-0.30935,125.25209
161251,1612523,1600,-304,12018,-93,-162,-253,0.00541,-0.02008,0.99665,-0.11603,0.16641,0.21298,-1.15403,-0.31074,0.99687,-1.13144,-0.33099,-0.020992,0.048444,0.018407,0.018407,0.459779,-0.002179,-0.010047,0.887974,-1.13725,-0.30767,125.2542
161252,1612533,1606,-322,12022,-89,-189,-250,0.00577,-0.02118,0.99689,-0.0855,-0.03969,0.23588,-1.21719,-0.33181,0.99713,-1.13367,-0.33187,-0.020841,0.048444,0.018663,0.018663,0.459761,-0.002182,-0.01007,0.887983,-1.1397,-0.3085,125.25658
161253,1612543,1666,-286,12056,-80,-184,-245,0.00946,-0.01897,0.99891,-0.01679,-0.00153,0.27405,-1.08811,-0.5423,0.99913,-1.13272,-0.33657,-0.020928,0.048842,0.020012,0.020012,0.45974,-0.002142,-0.010082,0.887994,-1.13885,-0.31313,125.25931
161254,1612553,1618,-270,11986,-79,-175,-255,0.00651,-0.01799,0.99475,-0.00916,0.06718,0.19771,-1.03615,-0.37495,0.99493,-1.13105,-0.33701,-0.021074,0.0489,0.016075,0.016075,0.459725,-0.002131,-0.010069,0.888002,-1.13695,-0.31363,125.26126
161255,1612563,1644,-290,12034,-76,-175,-258,0.00811,-0.01922,0.9976,0.01374,0.06718,0.17481,-1.10363,-0.46549,0.99782,-1.13018,-0.3393,-0.021124,0.049135,0.019263,0.019263,0.459712,-0.00211,-0.010072,0.888009,-1.13616,-0.31594,125.26298
161256,1612573,1588,-264,12062,-78,-169,-250,0.00467,-0.01762,0.99926,-0.00153,0.11298,0.23588,-1.01037,-0.26772,0.99943,-1.12758,-0.33724,-0.021351,0.049,0.020074,0.020074,0.459694,-0.002116,-0.010044,0.888018,-1.13367,-0.3138,125.2653
161257,1612583,1624,-244,12008,-81,-174,-254,0.00688,-0.0164,0.99605,-0.02443,0.07481,0.20534,-0.94308,-0.39565,0.99621,-1.12436,-0.33802,-0.021659,0.049098,0.017623,0.017623,0.459678,-0.002095,-0.010021,0.888027,-1.13017,-0.31463,125.26733
161258,1612593,1622,-310,12056,-78,-175,-248,0.00676,-0.02044,0.99891,-0.00153,0.06718,0.25115,-1.17252,-0.38745,0.99914,-1.12513,-0.33883,-0.021567,0.049192,0.019964,0.019964,0.459659,-0.002093,-0.01003,0.888037,-1.13105,-0.31536,125.26984
161259,1612603,1628,-312,12020,-75,-162,-256,0.00712,-0.02057,0.99677,0.02137,0.16641,0.19008,-1.18209,-0.40944,0.99701,-1.12576,-0.33898,-0.021467,0.049317,0.018451,0.018451,0.459644,-0.002095,-0.010037,0.888044,-1.13185,-0.31552,125.2717
161260,1612613,1594,-292,12036,-81,-160,-248,0.00504,-0.01934,0.99772,-0.02443,0.18168,0.25115,-1.11054,-0.28927,0.99792,-1.12549,-0.33672,-0.021495,0.049229,0.019249,0.019249,0.459625,-0.002112,-0.010027,0.888054,-1.13169,-0.31314,125.27418
161261,1612623,1610,-318,11994,-85,-170,-247,0.00602,-0.02094,0.99522,-0.05496,0.10534,0.25878,-1.2051,-0.34649,0.99546,-1.12715,-0.33633,-0.02137,0.049245,0.016678,0.016678,0.459605,-0.002124,-0.01004,0.888064,-1.13369,-0.31269,125.27673
161262,1612633,1582,-318,12072,-78,-181,-248,0.0043,-0.02094,0.99986,-0.00153,0.02137,0.25115,-1.19952,-0.24645,1.00009,-1.12841,-0.3348,-0.021232,0.049074,0.020073,0.020073,0.459585,-0.002141,-0.010044,0.888074,-1.13503,-0.3111,125.27927
161263,1612643,1598,-300,12048,-79,-186,-249,0.00528,-0.01983,0.99843,-0.00916,-0.01679,0.24351,-1.13789,-0.30314,0.99864,-1.12848,-0.33483,-0.021214,0.049014,0.019681,0.019681,0.459566,-0.002142,-0.010046,0.888084,-1.1352,-0.31106,125.28171
161264,1612653,1638,-268,12034,-74,-185,-249,0.00774,-0.01787,0.9976,0.02901,-0.00916,0.24351,-1.02615,-0.44435,0.99779,-1.12603,-0.33749,-0.021398,0.049211,0.019093,0.019093,0.459548,-0.002111,-0.010037,0.888094,-1.13275,-0.31375,125.28413
161265,1612663,1636,-350,12066,-80,-189,-253,0.00762,-0.0229,0.9995,-0.01679,-0.03969,0.21298,-1.31241,-0.43643,0.99979,-1.12971,-0.34034,-0.021045,0.049396,0.019981,0.019981,0.459531,-0.002104,-0.010078,0.888102,-1.13652,-0.31656,125.28629
161266,1612673,1602,-274,12022,-78,-186,-248,0.00553,-0.01824,0.99689,-0.00153,-0.01679,0.25115,-1.04803,-0.31773,0.99707,-1.12801,-0.34057,-0.021187,0.049356,0.018405,0.018405,0.459512,-0.002096,-0.010065,0.888112,-1.1348,-0.3167,125.28879
161267,1612683,1638,-294,12088,-77,-168,-252,0.00774,-0.01946,1.00081,0.00611,0.12061,0.22061,-1.11413,-0.44292,1.00103,-1.12747,-0.34189,-0.021213,0.049548,0.019748,0.019748,0.459495,-0.002084,-0.010067,0.888121,-1.13433,-0.31798,125.29097
161268,1612693,1672,-272,12104,-68,-170,-251,0.00982,-0.01811,1.00176,0.07481,0.10534,0.22824,-1.03591,-0.56181,1.00197,-1.12477,-0.34556,-0.021377,0.049949,0.019192,0.019192,0.459478,-0.002044,-0.010061,0.88813,-1.13164,-0.32174,125.29322
161269,1612703,1642,-272,12092,-73,-165,-249,0.00798,-0.01811,1.00105,0.03664,0.14351,0.24351,-1.03665,-0.45687,1.00124,-1.12248,-0.34683,-0.02154,0.050157,0.019608,0.019608,0.459459,-0.002025,-0.010049,0.88814,-1.12939,-0.32295,125.29562
161270,1612713,1650,-298,12068,-74,-171,-245,0.00847,-0.01971,0.99962,0.02901,0.09771,0.27405,-1.12951,-0.48564,0.99985,-1.12212,-0.34912,-0.021526,0.050419,0.019874,0.019874,0.459439,-0.002007,-0.010055,0.88815,-1.12912,-0.32517,125.29833
161271,1612723,1584,-228,12018,-78,-173,-243,0.00442,-0.01541,0.99665,-0.00153,0.08244,0.28931,-0.88611,-0.25432,0.99678,-1.11767,-0.3471,-0.021928,0.050258,0.018015,0.018015,0.459416,-0.002005,-0.010009,0.888162,-1.12434,-0.32289,125.30119
161272,1612733,1604,-328,12074,-71,-182,-249,0.00565,-0.02155,0.99998,0.05191,0.01374,0.24351,-1.2345,-0.32375,1.00022,-1.11927,-0.347,-0.021707,0.050214,0.019845,0.019845,0.459397,-0.002013,-0.010022,0.888172,-1.12604,-0.32272,125.30362
161273,1612743,1590,-262,12034,-77,-178,-251,0.00479,-0.0175,0.9976,0.00611,0.04427,0.22824,-1.00501,-0.27522,0.99776,-1.11684,-0.3457,-0.021911,0.050085,0.018899,0.018899,0.45938,-0.002014,-0.009997,0.888181,-1.12358,-0.32129,125.30589
161274,1612753,1630,-360,12014,-80,-184,-242,0.00725,-0.02351,0.99641,-0.01679,-0.00153,0.29695,-1.35173,-0.41661,0.99671,-1.12099,-0.34747,-0.021512,0.050205,0.017919,0.017919,0.459357,-0.002018,-0.010041,0.888193,-1.12828,-0.32313,125.30888
161275,1612763,1626,-296,12014,-82,-182,-244,0.007,-0.01959,0.99641,-0.03206,0.01374,0.28168,-1.1261,-0.40254,0.99663,-1.12119,-0.34881,-0.021504,0.050297,0.017836,0.017836,0.459335,-0.002008,-0.010049,0.888204,-1.12857,-0.32451,125.31169
161276,1612773,1614,-300,12064,-78,-190,-244,0.00627,-0.01983,0.99938,-0.00153,-0.04733,0.28168,-1.13681,-0.35913,0.9996,-1.1213,-0.34998,-0.021474,0.050314,0.019802,0.019802,0.459313,-0.002,-0.010055,0.888215,-1.12877,-0.32562,125.31452
161277,1612783,1598,-306,12030,-75,-172,-241,0.00528,-0.0202,0.99736,0.02137,0.09008,0.30458,-1.16025,-0.30346,0.99758,-1.12161,-0.34871,-0.021404,0.050233,0.01873,0.01873,0.459289,-0.002013,-0.010053,0.888228,-1.1292,-0.32422,125.31755
161278,1612793,1598,-264,12052,-77,-181,-248,0.00528,-0.01762,0.99867,0.00611,0.02137,0.25115,-1.01097,-0.30308,0.99884,-1.11918,-0.34811,-0.021609,0.050148,0.01954,0.01954,0.45927,-0.002008,-0.010031,0.888238,-1.12679,-0.32353,125.32004
161279,1612803,1646,-306,12078,-78,-185,-244,0.00823,-0.0202,1.00021,-0.00153,-0.00916,0.28168,-1.15694,-0.47129,1.00045,-1.11973,-0.35112,-0.021538,0.050377,0.019736,0.019736,0.459248,-0.001987,-0.010048,0.888249,-1.12742,-0.32652,125.32288
161280,1612813,1590,-320,12014,-81,-175,-248,0.00479,-0.02106,0.99641,-0.02443,0.06718,0.25115,-1.21071,-0.27553,0.99665,-1.12137,-0.34961,-0.021385,0.05025,0.017787,0.017787,0.459229,-0.002008,-0.010056,0.888259,-1.12933,-0.32479,125.32538
161281,1612823,1586,-342,12096,-76,-170,-248,0.00455,-0.02241,1.00128,0.01374,0.10534,0.25115,-1.28201,-0.26014,1.00154,-1.12413,-0.34734,-0.02109,0.050087,0.01931,0.01931,0.459209,-0.002038,-0.010069,0.888269,-1.13225,-0.3224,125.3279
161282,1612833,1592,-294,12078,-71,-159,-239,0.00492,-0.01946,1.00021,0.05191,0.18931,0.31985,-1.11479,-0.28152,1.00042,-1.12323,-0.34468,-0.021106,0.049967,0.019711,0.019711,0.459185,-0.002056,-0.010051,0.888282,-1.1314,-0.31963,125.33106
161283,1612843,1626,-296,12034,-66,-175,-242,0.007,-0.01959,0.9976,0.09008,0.06718,0.29695,-1.12476,-0.40206,0.99782,-1.12217,-0.34559,-0.021102,0.05007,0.018839,0.018839,0.459162,-0.002044,-0.010047,0.888294,-1.13038,-0.32054,125.334
161284,1612853,1642,-248,12070,-72,-173,-243,0.00798,-0.01664,0.99974,0.04427,0.08244,0.28931,-0.95366,-0.45748,0.99991,-1.11821,-0.34748,-0.021415,0.050279,0.01971,0.01971,0.45914,-0.002014,-0.010024,0.888305,-1.12642,-0.3224,125.33685
161285,1612863,1602,-288,12042,-77,-183,-239,0.00553,-0.0191,0.99807,0.00611,0.00611,0.31985,-1.09606,-0.31734,0.99827,-1.11751,-0.34734,-0.021454,0.050224,0.019128,0.019128,0.459115,-0.002013,-0.010018,0.888318,-1.12577,-0.32217,125.34007
161286,1612873,1620,-300,12156,-72,-193,-243,0.00663,-0.01983,1.00485,0.04427,-0.07023,0.28931,-1.13063,-0.37817,1.00507,-1.11707,-0.34901,-0.021434,0.050268,0.01572,0.01572,0.459093,-0.001998,-0.010023,0.88833,-1.12544,-0.32391,125.34295
161287,1612883,1654,-280,12038,-77,-185,-243,0.00872,-0.0186,0.99784,0.00611,-0.00916,0.28931,-1.06815,-0.50061,0.99805,-1.11587,-0.35247,-0.021522,0.05054,0.019018,0.019018,0.45907,-0.001965,-0.010028,0.888341,-1.12426,-0.32746,125.34586
161288,1612893,1640,-298,12054,-83,-181,-250,0.00786,-0.01971,0.99879,-0.03969,0.02137,0.23588,-1.13045,-0.45085,0.99901,-1.11634,-0.35468,-0.021495,0.050721,0.019531,0.019531,0.459052,-0.00195,-0.010041,0.88835,-1.12479,-0.32967,125.34821
161289,1612903,1604,-270,12020,-87,-180,-251,0.00565,-0.01799,0.99677,-0.07023,0.02901,0.22824,-1.03405,-0.32482,0.99695,-1.11533,-0.35435,-0.021636,0.05067,0.018046,0.018046,0.459035,-0.001949,-0.010031,0.88836,-1.12371,-0.32924,125.35047
161290,1612913,1648,-314,12082,-81,-172,-253,0.00835,-0.02069,1.00045,-0.02443,0.09008,0.21298,-1.18476,-0.4782,1.0007,-1.11672,-0.3564,-0.021508,0.0509,0.01961,0.01961,0.459018,-0.001939,-0.01005,0.888368,-1.12519,-0.33127,125.35259
161291,1612923,1608,-302,12088,-79,-147,-252,0.0059,-0.01995,1.00081,-0.00916,0.28092,0.22061,-1.14221,-0.33754,1.00102,-1.11709,-0.35377,-0.02146,0.05087,0.019482,0.019482,0.459002,-0.001962,-0.010043,0.888377,-1.12563,-0.32855,125.35475
161292,1612933,1638,-294,12026,-92,-154,-259,0.00774,-0.01946,0.99712,-0.1084,0.22748,0.16718,-1.11824,-0.44455,0.99734,-1.11797,-0.35371,-0.02146,0.051031,0.018391,0.018391,0.458989,-0.001965,-0.01005,0.888383,-1.12658,-0.32854,125.35638
161293,1612943,1616,-324,12026,-93,-168,-263,0.00639,-0.0213,0.99712,-0.11603,0.12061,0.13664,-1.22394,-0.36698,0.99737,-1.12085,-0.35327,-0.021277,0.051055,0.018418,0.018418,0.458978,-0.001981,-0.010072,0.888388,-1.12968,-0.32807,125.35773
161294,1612953,1684,-278,11988,-107,-201,-264,0.01056,-0.01848,0.99487,-0.2229,-0.1313,0.12901,-1.06428,-0.6081,0.99509,-1.12193,-0.35912,-0.021365,0.051437,0.015912,0.015912,0.458969,-0.001933,-0.010107,0.888393,-1.13064,-0.33483,125.35904
161295,1612963,1680,-322,12124,-109,-205,-258,0.01032,-0.02118,1.00295,-0.23817,-0.16183,0.17481,-1.20983,-0.58915,1.00322,-1.12563,-0.36533,-0.02122,0.051823,0.017893,0.017893,0.458955,-0.001897,-0.010164,0.888399,-1.1346,-0.34145,125.36082
161296,1612973,1604,-266,12028,-101,-207,-246,0.00565,-0.01775,0.99724,-0.1771,-0.1771,0.26641,-1.01947,-0.32466,0.99742,-1.1252,-0.36682,-0.021408,0.051748,0.018516,0.018516,0.458934,-0.001884,-0.010166,0.88841,-1.1341,-0.34283,125.36351
161297,1612983,1648,-282,12018,-83,-215,-240,0.00835,-0.01873,0.99665,-0.03969,-0.23817,0.31221,-1.07648,-0.48004,0.99686,-1.1245,-0.37171,-0.021492,0.051935,0.017987,0.017987,0.45891,-0.001842,-0.01018,0.888422,-1.13337,-0.34787,125.36666
161298,1612993,1650,-316,12030,-75,-201,-230,0.00847,-0.02081,0.99736,0.02137,-0.1313,0.38855,-1.19547,-0.48673,0.99761,-1.12541,-0.37566,-0.021365,0.052136,0.018692,0.018692,0.45888,-0.001815,-0.010205,0.888438,-1.13442,-0.35187,125.37058
161299,1613003,1640,-286,12018,-65,-191,-230,0.00786,-0.01897,0.99665,0.09771,-0.05496,0.38855,-1.09058,-0.45182,0.99686,-1.12361,-0.37808,-0.021423,0.052264,0.017991,0.017991,0.45885,-0.001788,-0.0102,0.888453,-1.1326,-0.35432,125.37447
161300,1613013,1676,-298,12048,-59,-180,-226,0.01007,-0.01971,0.99843,0.14351,0.02901,0.41908,-1.13086,-0.57775,0.99868,-1.12213,-0.38218,-0.021406,0.05263,0.019405,0.019405,0.458818,-0.00175,-0.010206,0.88847,-1.13115,-0.35841,125.37865
161301,1613023,1636,-268,12044,-49,-183,-223,0.00762,-0.01787,0.99819,0.21985,0.00611,0.44198,-1.02553,-0.43705,0.99838,-1.11791,-0.38369,-0.021578,0.052729,0.019226,0.019226,0.458784,-0.001721,-0.010178,0.888488,-1.12687,-0.35983,125.38307
161302,1613033,1704,-316,12042,-40,-184,-218,0.01179,-0.02081,0.99807,0.28855,-0.00153,0.48015,-1.19462,-0.67655,0.99836,-1.11634,-0.38985,-0.021433,0.053261,0.019199,0.019199,0.458747,-0.001667,-0.010192,0.888507,-1.12537,-0.36607,125.38788
161303,1613043,1604,-296,12040,-54,-174,-224,0.00565,-0.01959,0.99796,0.18168,0.07481,0.43435,-1.12435,-0.32442,0.99816,-1.1145,-0.38839,-0.021415,0.053143,0.01906,0.01906,0.458713,-0.001672,-0.010171,0.888525,-1.12356,-0.3644,125.3922
161304,1613053,1634,-306,12064,-62,-180,-226,0.00749,-0.0202,0.99938,0.12061,0.02901,0.41908,-1.1579,-0.42947,0.99961,-1.11396,-0.38943,-0.021331,0.053219,0.01965,0.01965,0.458681,-0.001662,-0.010171,0.888541,-1.12307,-0.36533,125.3964
161305,1613063,1620,-298,12062,-60,-170,-220,0.00663,-0.01971,0.99926,0.13588,0.10534,0.46489,-1.12991,-0.38028,0.99948,-1.11273,-0.38874,-0.021299,0.053203,0.019604,0.019604,0.458645,-0.001664,-0.010158,0.88856,-1.12188,-0.36449,125.40102
161306,1613073,1610,-312,12038,-63,-164,-220,0.00602,-0.02057,0.99784,0.11298,0.15115,0.46489,-1.18082,-0.34559,0.99807,-1.11271,-0.38696,-0.021174,0.053128,0.018941,0.018941,0.458609,-0.001679,-0.010151,0.888579,-1.12195,-0.36251,125.40565
161307,1613083,1604,-322,12078,-60,-172,-223,0.00565,-0.02118,1.00021,0.13588,0.09008,0.44198,-1.21314,-0.32368,1.00045,-1.11313,-0.38536,-0.020985,0.053011,0.019587,0.019587,0.458575,-0.001694,-0.010148,0.888596,-1.12244,-0.36074,125.41006
161308,1613093,1638,-296,11992,-62,-173,-225,0.00774,-0.01959,0.9951,0.12061,0.08244,0.42672,-1.12758,-0.44545,0.99533,-1.11197,-0.38604,-0.020961,0.053103,0.016148,0.016148,0.458542,-0.001684,-0.010143,0.888613,-1.12136,-0.36149,125.41431
161309,1613103,1688,-314,12092,-68,-185,-223,0.01081,-0.02069,1.00105,0.07481,-0.00916,0.44198,-1.18405,-0.61837,1.00132,-1.11243,-0.39114,-0.020827,0.053527,0.019323,0.019323,0.458508,-0.001646,-0.010167,0.888631,-1.12189,-0.36663,125.41873
161310,1613113,1654,-268,12044,-65,-188,-217,0.00872,-0.01787,0.99819,0.09771,-0.03206,0.48779,-1.02553,-0.50044,0.99839,-1.1096,-0.39407,-0.020982,0.053724,0.019151,0.019151,0.45847,-0.001611,-0.010157,0.88865,-1.11903,-0.36952,125.42361
161311,1613123,1584,-302,12042,-69,-194,-220,0.00442,-0.01995,0.99807,0.06718,-0.07786,0.46489,-1.14534,-0.25394,0.99828,-1.10942,-0.39269,-0.020916,0.053469,0.019074,0.019074,0.458434,-0.001623,-0.010149,0.888669,-1.11891,-0.3679,125.42827
161312,1613133,1658,-304,12040,-65,-195,-220,0.00897,-0.02008,0.99796,0.09771,-0.0855,0.46489,-1.15252,-0.51462,0.9982,-1.10907,-0.39637,-0.020836,0.053686,0.019009,0.019009,0.458398,-0.001593,-0.010162,0.888687,-1.11863,-0.37159,125.43295
161313,1613143,1674,-332,12030,-59,-183,-213,0.00995,-0.02179,0.99736,0.14351,0.00611,0.51832,-1.25183,-0.5713,0.99765,-1.11012,-0.40009,-0.020582,0.053993,0.018597,0.018597,0.458358,-0.001568,-0.010187,0.888708,-1.11988,-0.3754,125.43813
161314,1613153,1676,-304,12142,-58,-181,-216,0.01007,-0.02008,1.00402,0.15115,0.02137,0.49542,-1.14556,-0.57453,1.00427,-1.10902,-0.40332,-0.020524,0.054267,0.016633,0.016633,0.45832,-0.001536,-0.010194,0.888728,-1.11891,-0.379,125.44309
161315,1613163,1678,-310,12048,-63,-173,-215,0.01019,-0.02044,0.99843,0.11298,0.08244,0.50305,-1.17308,-0.58478,0.99869,-1.10894,-0.40654,-0.020404,0.0546,0.019317,0.019317,0.458281,-0.00151,-0.010207,0.888747,-1.11889,-0.38219,125.44812
161316,1613173,1664,-338,12082,-57,-170,-213,0.00933,-0.02216,1.00045,0.15878,0.10534,0.51832,-1.26903,-0.5344,1.00074,-1.11031,-0.40854,-0.020104,0.054837,0.01952,0.01952,0.458241,-0.001501,-0.010226,0.888768,-1.12034,-0.38408,125.45329
161317,1613183,1642,-314,12002,-55,-166,-226,0.00798,-0.02069,0.9957,0.17405,0.13588,0.41908,-1.19041,-0.4593,0.99594,-1.10976,-0.4086,-0.019973,0.05492,0.016884,0.016884,0.458209,-0.001499,-0.010223,0.888785,-1.12001,-0.38412,125.45745
161318,1613193,1666,-308,12118,-67,-162,-219,0.00946,-0.02032,1.00259,0.08244,0.16641,0.47252,-1.16121,-0.54029,1.00284,-1.10969,-0.4099,-0.019883,0.055149,0.018198,0.018198,0.458172,-0.001488,-0.010229,0.888803,-1.12003,-0.38546,125.46216
161319,1613203,1698,-280,12058,-74,-175,-222,0.01142,-0.0186,0.99903,0.02901,0.06718,0.44962,-1.06688,-0.65482,0.99926,-1.10837,-0.41457,-0.019961,0.055602,0.01954,0.01954,0.458138,-0.001447,-0.010237,0.888821,-1.11871,-0.39009,125.46663
161320,1613213,1658,-274,12088,-63,-195,-219,0.00897,-0.01824,1.00081,0.11298,-0.0855,0.47252,-1.04392,-0.51317,1.00101,-1.10582,-0.41787,-0.020077,0.055781,0.019428,0.019428,0.458101,-0.001411,-0.01023,0.88884,-1.11612,-0.39331,125.47137
161321,1613223,1688,-294,12132,-56,-229,-215,0.01081,-0.01946,1.00342,0.16641,-0.34504,0.50305,-1.11123,-0.61692,1.00367,-1.10408,-0.42526,-0.020065,0.056101,0.017321,0.017321,0.458062,-0.001343,-0.010248,0.88886,-1.11439,-0.40107,125.47646
161322,1613233,1674,-350,12076,-27,-293,-210,0.00995,-0.0229,1.0001,0.38779,-0.83359,0.54122,-1.31163,-0.56972,1.00041,-1.10415,-0.43681,-0.019672,0.056353,0.019599,0.019599,0.45802,-0.001253,-0.010295,0.888882,-1.1145,-0.41267,125.48206
161323,1613243,1706,-298,12132,-22,-299,-211,0.01191,-0.01971,1.00342,0.42595,-0.87939,0.53359,-1.12523,-0.67997,1.00369,-1.10013,-0.45022,-0.01963,0.056736,0.017304,0.017304,0.457978,-0.001128,-0.01032,0.888903,-1.11049,-0.42664,125.48757
161324,1613253,1702,-330,12098,-29,-273,-210,0.01167,-0.02167,1.0014,0.37252,-0.68092,0.54122,-1.23976,-0.66727,1.0017,-1.09895,-0.46159,-0.019371,0.057116,0.01909,0.01909,0.457935,-0.001034,-0.010357,0.888925,-1.10938,-0.43814,125.49313
161325,1613263,1712,-264,12148,-34,-236,-208,0.01228,-0.01762,1.00437,0.33435,-0.39847,0.55649,-1.00523,-0.70035,1.0046,-1.09395,-0.46996,-0.01951,0.057476,0.016248,0.016248,0.457892,-0.000943,-0.010352,0.888947,-1.10404,-0.44715,125.49877
161326,1613273,1696,-322,12030,-33,-242,-210,0.0113,-0.02118,0.99736,0.34198,-0.44427,0.54122,-1.21661,-0.64883,0.99765,-1.09269,-0.47822,-0.019286,0.057784,0.018657,0.018657,0.45785,-0.000873,-0.010376,0.888969,-1.10291,-0.4555,125.50429
161327,1613283,1694,-336,12022,-28,-222,-206,0.01117,-0.02204,0.99689,0.38015,-0.2916,0.57176,-1.26652,-0.64208,0.99719,-1.09194,-0.48464,-0.018979,0.058061,0.018253,0.018253,0.457805,-0.00082,-0.010398,0.888991,-1.1024,-0.46201,125.51009
161328,1613293,1726,-306,12158,-42,-177,-204,0.01314,-0.0202,1.00497,0.27328,0.05191,0.58702,-1.15147,-0.74886,1.00526,-1.08998,-0.48879,-0.018887,0.058448,0.015476,0.015476,0.45776,-0.000774,-0.010405,0.889015,-1.10067,-0.46696,125.51595
161329,1613303,1692,-322,12124,-58,-164,-200,0.01105,-0.02118,1.00295,0.15115,0.15115,0.61756,-1.20983,-0.63121,1.00323,-1.09046,-0.49043,-0.018681,0.058691,0.017894,0.017894,0.457712,-0.000763,-0.010417,0.889039,-1.10137,-0.46858,125.5221
161330,1613313,1654,-246,12102,-52,-187,-197,0.00872,-0.01652,1.00164,0.19695,-0.02443,0.64046,-0.94484,-0.49873,1.00181,-1.08556,-0.4914,-0.018941,0.058705,0.01912,0.01912,0.457663,-0.000737,-0.010381,0.889065,-1.09633,-0.4693,125.5285
161331,1613323,1728,-304,12136,-41,-221,-201,0.01326,-0.02008,1.00366,0.28092,-0.28397,0.60992,-1.14597,-0.75684,1.00395,-1.08365,-0.49931,-0.018838,0.05913,0.017109,0.017109,0.457616,-0.000664,-0.0104,0.889089,-1.09455,-0.47769,125.53466
161332,1613333,1746,-318,12144,-38,-227,-197,0.01437,-0.02094,1.00414,0.30382,-0.32977,0.64046,-1.19441,-0.81947,1.00446,-1.0823,-0.50843,-0.01866,0.059625,0.016531,0.016531,0.457566,-0.000583,-0.010432,0.889114,-1.09352,-0.48756,125.54113
